timestamp,side,ax,ay,az,gx,gy,gz,swing
1786849311.4028244,R,0.086376,0.0068319999999999995,-0.987956,-1.4700000000000002,-0.6300000000000001,-1.4700000000000002,0
1786849311.4028244,R,0.090036,0.008296,-0.9928359999999999,-1.6800000000000002,-0.9800000000000001,-1.54,0
1786849311.4028244,R,0.0,0.0,0.0,0.0,0.0,0.0,0
1786849311.4028244,R,0.0,0.0,0.0,0.0,0.0,0.0,0
1786849311.4043317,R,0.0,0.0,0.0,0.0,0.0,0.0,0
1786849311.419711,R,0.062952,0.002928,-0.741028,-0.77,-0.07,-0.9800000000000001,0
1786849311.4342933,R,0.082228,0.00244,-0.971364,-1.2600000000000002,-0.07,-1.2600000000000002,0
1786849311.4493132,R,0.088084,0.0026839999999999998,-0.982588,-1.2600000000000002,0.07,-1.33,0
1786849311.464362,R,0.087352,0.005856,-0.98942,-1.7500000000000002,-0.14,-1.4700000000000002,0
1786849311.4943,R,0.083448,0.008539999999999999,-0.970876,-1.12,0.07,-1.4000000000000001,0
1786849311.4963036,R,0.086376,0.005612,-0.983564,-0.42000000000000004,0.14,-1.4000000000000001,0
1786849311.5093198,R,0.086376,0.004148,-0.987956,-1.61,-0.21000000000000002,-1.4700000000000002,0
1786849311.5243647,R,0.085156,0.0060999999999999995,-0.971608,-1.8900000000000001,-0.07,-1.4700000000000002,0
1786849311.5274868,L,0.133468,-0.903776,0.478972,130.83,116.55000000000001,52.99,0
1786849311.5397954,R,0.087108,0.008784,-0.976244,-0.8400000000000001,0.0,-1.33,0
1786849311.5418773,L,0.118828,-0.936472,0.503616,149.31,109.69000000000001,42.42,0
1786849311.5544844,R,0.084912,0.0060999999999999995,-0.983808,-0.9800000000000001,-0.07,-1.33,0
1786849311.5575666,L,0.09174399999999999,-0.85644,0.520452,88.62,119.42000000000002,36.400000000000006,0
1786849311.5697017,R,0.08418,0.00488,-0.978928,-1.2600000000000002,0.0,-1.4000000000000001,0
1786849311.5728178,L,0.077836,-1.04188,0.668804,-46.900000000000006,171.85000000000002,17.290000000000003,0
1786849311.5844874,R,0.086864,0.0046359999999999995,-0.9852719999999999,-0.9800000000000001,-0.07,-1.33,0
1786849311.5875876,L,-0.012444,-1.103124,0.604632,-46.620000000000005,143.01000000000002,27.300000000000004,0
1786849311.5996032,R,0.084912,0.004148,-0.978196,-1.2600000000000002,-0.14,-1.4000000000000001,0
1786849311.6018827,L,0.002928,-1.01626,0.646844,-25.270000000000003,121.45000000000002,31.360000000000003,0
1786849311.6144874,R,0.081496,0.0034159999999999998,-0.9755119999999999,-4.9,0.0,-1.6800000000000002,0
1786849311.616859,L,-0.038308,-1.021628,0.639524,-18.830000000000002,137.20000000000002,15.400000000000002,0
1786849311.6294875,R,0.083692,0.014152,-0.975756,2.5200000000000005,0.0,-0.9800000000000001,0
1786849311.6329951,L,-0.044652,-1.055788,0.707112,0.07,139.86,11.13,0
1786849311.6445127,R,0.08662,-0.004148,-1.000644,1.54,0.07,-1.1900000000000002,0
1786849311.6475167,L,-0.038308,-1.04188,0.788852,31.640000000000004,126.07000000000001,6.790000000000001,0
1786849311.6596293,R,0.08662,0.000488,-0.978684,-3.5000000000000004,0.0,-1.6800000000000002,0
1786849311.662137,L,-0.083204,-1.037976,0.743468,35.63,115.43,7.840000000000001,0
1786849311.674502,R,0.080764,0.008784,-0.983808,-2.31,0.07,-1.4700000000000002,0
1786849311.6775048,L,-0.103944,-1.008452,0.794708,38.080000000000005,105.77000000000001,15.96,0
1786849311.6889637,R,0.154452,-0.015616,-1.117032,-50.68000000000001,-2.24,-12.39,0
1786849311.6924713,L,-0.143472,-0.992348,0.798612,30.730000000000004,112.00000000000001,21.490000000000002,0
1786849311.7052627,R,0.038796,0.179828,-0.758352,19.32,1.61,-9.170000000000002,0
1786849311.7072625,L,-0.184464,-0.9952759999999999,0.784948,23.1,120.12,18.62,0
1786849311.719784,R,0.09638,-0.028791999999999998,-1.156804,11.9,0.42000000000000004,-17.92,0
1786849311.7228038,L,-0.229116,-0.961116,0.781044,22.540000000000003,118.37,7.840000000000001,0
1786849311.7343216,R,0.120536,0.0854,-0.965508,-53.620000000000005,-2.9400000000000004,-47.040000000000006,0
1786849311.7373261,L,-0.242536,-0.923052,0.780068,26.250000000000004,112.14000000000001,-3.1500000000000004,0
1786849311.7493405,R,0.099796,0.022203999999999998,-0.909144,6.300000000000001,0.56,-38.64,0
1786849311.7524865,L,-0.302804,-0.8030039999999999,0.768356,43.190000000000005,119.77000000000001,-4.69,0
1786849311.7646646,R,0.071736,-0.050508,-1.009184,-2.9400000000000004,-0.21000000000000002,-28.140000000000004,0
1786849311.767719,L,-0.213012,-0.936716,0.829844,58.38,112.28000000000002,-14.14,0
1786849311.7792914,R,0.056364,-0.20374,-1.102148,-50.61000000000001,-3.7100000000000004,-11.690000000000001,0
1786849311.7827973,L,-0.250832,-0.81008,0.820572,84.28,99.68,-13.23,0
1786849311.7943156,R,0.009271999999999999,0.132736,-0.874252,-29.540000000000003,-3.7800000000000002,-16.520000000000003,0
1786849311.7973192,L,-0.274988,-0.776164,0.848144,114.17000000000002,93.38000000000001,-8.82,0
1786849311.8094273,R,0.118828,0.042943999999999996,-1.07116,-34.09,-3.8500000000000005,-48.93000000000001,0
1786849311.8124712,L,-0.248392,-0.7093079999999999,0.885964,139.09,80.71000000000001,-12.180000000000001,0
1786849311.8246639,R,0.209108,0.053924,-1.065792,-77.35000000000001,-10.15,-60.13,0
1786849311.8271139,L,-0.25498,-0.5921879999999999,0.86498,143.71,66.78,-12.180000000000001,0
1786849311.8396564,R,0.151524,0.165188,-1.067744,-116.55000000000001,-14.560000000000002,-96.95,0
1786849311.8427184,L,-0.265716,-0.51484,0.836432,122.92000000000002,65.94000000000001,-13.3,0
1786849311.8547094,R,0.10760399999999999,0.183244,-1.070184,-143.92000000000002,-7.07,-196.07000000000002,0
1786849311.8577561,L,-0.243756,-0.493612,0.9262239999999999,104.51,73.43,-6.44,0
1786849311.8693004,R,0.129076,0.155916,-1.059448,-185.99,-2.87,-228.41000000000003,0
1786849311.8728073,L,-0.242536,-0.542168,1.041636,84.56,70.84,21.770000000000003,0
1786849311.8843307,R,0.16128399999999998,0.362584,-0.9916159999999999,-174.3,-17.71,-182.14000000000001,0
1786849311.887339,L,-0.267912,-0.61,1.15412,70.42,59.150000000000006,47.6,0
1786849311.8989978,R,0.199592,0.526308,-1.019188,-182.98000000000002,-46.410000000000004,-107.45000000000002,0
1786849311.902505,L,-0.296216,-0.7032079999999999,1.1651,73.71000000000001,33.25,45.50000000000001,0
1786849311.9147277,R,0.168848,0.561932,-1.139236,-260.89000000000004,-76.30000000000001,-65.31,0
1786849311.9177427,L,-0.292312,-0.663436,1.079944,100.24000000000001,5.11,27.580000000000002,0
1786849311.929301,R,0.175924,0.233264,-1.20414,-357.00000000000006,-111.30000000000001,-104.23,0
1786849311.9328084,L,-0.250588,-0.540216,0.9569679999999999,137.83,-12.110000000000001,15.400000000000002,0
1786849311.9443264,R,0.110776,0.41626399999999997,-1.05896,-407.54,-104.30000000000001,-195.23000000000002,0
1786849311.9593773,R,0.044896,0.369904,-0.825696,-385.98,-89.11000000000001,-256.69,0
1786849311.962394,L,-0.231068,-0.372832,0.860588,181.79000000000002,-16.66,14.700000000000001,0
1786849311.9633942,L,-0.23277599999999998,-0.24034,0.87962,197.54000000000002,-1.7500000000000002,32.13,0
1786849311.9746022,R,-0.271084,0.270596,-0.592676,-205.8,-57.68000000000001,-265.65000000000003,0
1786849311.9778504,L,-0.259616,-0.229848,1.006988,172.76000000000002,19.46,65.03,0
1786849311.9894884,R,-0.398696,0.33427999999999997,-0.45383999999999997,21.840000000000003,-35.980000000000004,-201.32000000000002,0
1786849311.9927487,L,-0.293288,-0.30134,1.100196,140.56,26.110000000000003,90.44000000000001,0
1786849312.004441,R,-0.36966,0.410896,-0.500688,204.47000000000003,-8.33,-117.25000000000001,0
1786849312.0074592,L,-0.346724,-0.390644,1.13338,115.01,17.01,91.63000000000001,0
1786849312.019752,R,-0.542412,0.113704,-1.038708,206.50000000000003,41.650000000000006,-37.03,0
1786849312.022845,L,-0.36453599999999997,-0.384056,1.0614,103.74000000000001,0.0,74.06,0
1786849312.0344243,R,-0.575596,0.156404,-1.145092,94.78000000000002,-12.110000000000001,64.75,0
1786849312.0374885,L,-0.366,-0.277916,0.91744,111.37,-11.06,57.470000000000006,0
1786849312.0496542,R,-0.383324,0.531676,-1.026996,104.65,-48.02,38.92,0
1786849312.0527287,L,-0.366732,-0.16104,0.788852,142.66000000000003,-8.05,54.81,0
1786849312.064259,R,-0.34111199999999997,0.597556,-0.9903959999999999,87.50000000000001,-42.63,-19.6,0
1786849312.0673687,L,-0.39283999999999997,-0.083204,0.7622559999999999,176.33,7.700000000000001,64.61,0
1786849312.0796306,R,-0.315248,0.519964,-0.99552,98.98,-36.470000000000006,-18.62,0
1786849312.082782,L,-0.433832,-0.07442,0.8152039999999999,188.72000000000003,25.900000000000002,77.7,0
1786849312.094299,R,-0.4148,0.479216,-1.16022,70.07000000000001,-25.970000000000002,-16.1,0
1786849312.0973022,L,-0.446764,-0.10174799999999999,0.868152,191.45000000000002,25.830000000000002,78.61000000000001,0
1786849312.1093183,R,-0.393084,0.487024,-1.25538,5.390000000000001,8.680000000000001,-27.720000000000002,0
1786849312.112825,L,-0.456768,-0.115412,0.834236,199.15,19.67,75.39,0
1786849312.124483,R,-0.404064,0.556564,-1.341268,-6.16,40.25000000000001,-33.53,0
1786849312.126927,L,-0.464576,-0.089548,0.77104,209.51000000000002,15.540000000000001,64.4,0
1786849312.1397314,R,-0.36941599999999997,0.440664,-1.249524,13.020000000000001,45.99,-51.800000000000004,0
1786849312.142826,L,-0.460916,-0.038551999999999996,0.7117479999999999,219.73000000000002,16.66,55.86000000000001,0
1786849312.1544938,R,-0.438712,0.496296,-1.057496,63.28000000000001,43.470000000000006,-36.330000000000005,0
1786849312.1577787,L,-0.518988,0.052216,0.779092,217.98000000000002,40.53,58.03000000000001,0
1786849312.1694162,R,-0.434076,0.49166,-0.94428,92.54,31.290000000000003,1.61,0
1786849312.1848783,R,-0.391376,0.40626,-0.907436,91.14000000000001,7.98,28.000000000000004,0
1786849312.1870072,L,-0.544852,0.086376,0.9211,185.43,77.28,65.87,0
1786849312.200666,R,-0.35526399999999997,0.280356,-0.904264,57.470000000000006,-4.2,26.390000000000004,0
1786849312.202062,L,-0.53192,0.075396,1.028948,140.21,90.30000000000001,67.2,0
1786849312.2030602,L,-0.507276,0.082472,1.037,102.34,83.23,62.02,0
1786849312.2147079,R,-0.24790399999999999,0.26352,-0.9394,25.340000000000003,19.250000000000004,4.48,0
1786849312.2170396,L,-0.468968,0.088084,0.9657519999999999,78.33000000000001,76.16000000000001,55.300000000000004,0
1786849312.2296321,R,-0.289872,0.226188,-1.048956,-11.97,50.400000000000006,0.7000000000000001,0
1786849312.2326987,L,-0.427732,0.07076,0.892552,69.09,67.83000000000001,48.300000000000004,0
1786849312.2443235,R,-0.272792,0.175436,-1.106052,-70.98,69.51,12.88,0
1786849312.2473266,L,-0.40699199999999996,0.09638,0.829844,84.77000000000001,51.31,36.190000000000005,0
1786849312.2593408,R,-0.21106,0.21594,-1.0352919999999999,-80.43,72.73,31.640000000000004,0
1786849312.262358,L,-0.402356,0.171532,0.8461919999999999,105.91000000000001,46.34,30.730000000000004,0
1786849312.274411,R,-0.210328,0.359412,-0.869616,-26.740000000000002,47.32000000000001,45.150000000000006,0
1786849312.2774148,L,-0.39405999999999997,0.195444,0.94916,101.57000000000001,61.11000000000001,33.88,0
1786849312.2896342,R,-0.224968,0.465308,-0.80276,50.470000000000006,1.1900000000000002,44.03,0
1786849312.2920518,L,-0.377956,0.16958,1.045784,71.05000000000001,63.980000000000004,37.17,0
1786849312.3046381,R,-0.123708,0.32012799999999997,-0.756888,107.66000000000001,-35.77,32.620000000000005,0
1786849312.3076417,L,-0.372588,0.121268,1.082872,35.0,56.980000000000004,31.500000000000004,0
1786849312.3222861,L,-0.32134799999999997,0.082472,1.05164,14.980000000000002,42.28,24.500000000000004,0
1786849312.3343132,R,-0.13054,0.193736,-0.9262239999999999,151.13000000000002,-32.690000000000005,20.51,0
1786849312.3353167,R,-0.238144,0.25254,-1.061644,111.44000000000001,6.44,-11.340000000000002,0
1786849312.3373172,L,-0.325984,0.102724,0.975756,7.140000000000001,29.400000000000002,18.340000000000003,0
1786849312.3493316,R,-0.168848,0.380396,-1.035048,80.78,5.95,-0.42000000000000004,0
1786849312.3528378,L,-0.304268,0.118828,0.935252,11.690000000000001,21.560000000000002,16.59,0
1786849312.3644676,R,-0.051727999999999996,0.364292,-0.798856,132.51000000000002,-46.13,40.39,0
1786849312.3675704,L,-0.298168,0.138836,0.9272,17.57,15.540000000000001,18.69,0
1786849312.379663,R,-0.159088,0.26718,-0.848144,157.08,-76.16000000000001,40.040000000000006,0
1786849312.3827689,L,-0.28182,0.120048,0.919148,18.200000000000003,10.780000000000001,19.950000000000003,0
1786849312.3952925,R,-0.217892,0.229848,-0.72712,180.74,-53.27,15.610000000000001,0
1786849312.397291,L,-0.28377199999999997,0.095404,0.93086,14.21,8.190000000000001,17.01,0
1786849312.4088507,R,-0.156892,0.128832,-0.703452,188.44000000000003,-31.92,-14.560000000000002,0
1786849312.4123576,L,-0.29158,0.096624,0.915244,5.250000000000001,5.390000000000001,11.55,0
1786849312.425138,R,-0.093696,0.071004,-0.732244,166.53000000000003,-27.37,-39.970000000000006,0
1786849312.427141,L,-0.287432,0.098332,0.909876,-5.180000000000001,1.8200000000000003,7.07,0
1786849312.4397,R,-0.033916,0.086376,-0.70028,145.88000000000002,-24.150000000000002,-40.6,0
1786849312.442715,L,-0.292068,0.098332,0.88572,-7.7700000000000005,-3.08,3.0100000000000002,0
1786849312.4547331,R,-0.009028,0.033428,-0.728584,115.85000000000001,-16.450000000000003,-19.950000000000003,0
1786849312.457767,L,-0.30622,0.110288,0.867908,-7.280000000000001,-6.790000000000001,-1.12,0
1786849312.469384,R,-0.043432,0.01342,-0.7080879999999999,105.49000000000001,-15.96,3.5000000000000004,0
1786849312.4724433,L,-0.31768799999999997,0.122976,0.861808,-5.32,-7.910000000000001,-4.0600000000000005,0
1786849312.4844275,R,-0.121512,-0.056852,-0.798368,112.63000000000001,-17.78,3.5000000000000004,0
1786849312.4874322,L,-0.333792,0.137372,0.874984,-2.5900000000000003,-11.270000000000001,-6.720000000000001,0
1786849312.5023284,L,-0.3538,0.15616,0.9027999999999999,-5.880000000000001,-14.280000000000001,-8.260000000000002,0
1786849312.514352,R,-0.195444,-0.03294,-0.806176,113.05000000000001,-10.64,14.700000000000001,0
1786849312.5154958,R,-0.074908,-0.17324,-0.854,118.93,-11.55,40.95,0
1786849312.517496,L,-0.378444,0.14713199999999999,0.924516,-13.090000000000002,-16.73,-11.620000000000001,0
1786849312.5327938,L,-0.395036,0.14249599999999998,0.919148,-11.690000000000001,-21.770000000000003,-19.250000000000004,0
1786849312.5443249,R,-0.19154,-0.207156,-0.877668,114.45000000000002,-8.680000000000001,37.730000000000004,0
1786849312.5453298,R,-0.101992,-0.232532,-0.901824,93.52000000000001,3.9200000000000004,3.2900000000000005,0
1786849312.5473301,L,-0.403088,0.148108,0.904264,-9.31,-25.200000000000003,-27.090000000000003,0
1786849312.559351,R,-0.046604,-0.255956,-0.890844,57.330000000000005,13.580000000000002,-54.88,0
1786849312.5624957,L,-0.41260399999999997,0.167872,0.8842559999999999,-5.670000000000001,-29.19,-32.410000000000004,0
1786849312.574364,R,-0.12078,-0.30744,-0.927932,13.790000000000001,9.31,-82.88000000000001,0
1786849312.577373,L,-0.42578,0.195688,0.869616,-2.1700000000000004,-32.27,-37.38,0
1786849312.5896811,R,-0.07076,-0.30256,-0.912072,-11.13,-2.3800000000000003,-40.46,0
1786849312.5927918,L,-0.436516,0.227164,0.856928,-0.28,-32.550000000000004,-39.690000000000005,0
1786849312.6052434,R,-0.101504,-0.174948,-0.975268,-10.64,-12.600000000000001,-2.24,0
1786849312.607297,L,-0.45945199999999997,0.25132,0.86498,-0.6300000000000001,-28.560000000000002,-41.160000000000004,0
1786849312.6193144,R,-0.10614,-0.177144,-0.936472,3.3600000000000003,-10.57,-4.62,0
1786849312.6228223,L,-0.457744,0.268888,0.874252,-3.1500000000000004,-28.28,-42.00000000000001,0
1786849312.6343393,R,-0.16128399999999998,-0.20252,-0.935496,-2.9400000000000004,-9.38,-22.820000000000004,0
1786849312.6373427,L,-0.457012,0.28133199999999997,0.859856,-5.460000000000001,-28.35,-42.77,0
1786849312.6494105,R,-0.154452,-0.23424,-0.972584,-11.620000000000001,-10.22,-16.380000000000003,0
1786849312.6524973,L,-0.449448,0.28255199999999997,0.83082,-6.23,-28.070000000000004,-43.61000000000001,0
1786849312.6645858,R,-0.127856,-0.202764,-0.956236,-22.19,-4.970000000000001,-4.550000000000001,0
1786849312.666972,L,-0.447008,0.294508,0.792268,-6.930000000000001,-28.000000000000004,-43.400000000000006,0
1786849312.6795416,R,-0.143228,-0.153476,-0.924028,-16.310000000000002,8.120000000000001,0.28,0
1786849312.6825814,L,-0.442372,0.30378,0.756644,-7.210000000000001,-25.830000000000002,-42.84,0
1786849312.6947594,R,-0.14835199999999998,-0.157136,-0.898896,-16.87,26.880000000000003,-4.2,0
1786849312.6977623,L,-0.44408,0.321104,0.7400519999999999,-3.99,-25.270000000000003,-41.510000000000005,0
1786849312.7093515,R,-0.164456,-0.193492,-0.916708,-16.8,34.510000000000005,2.7300000000000004,0
1786849312.7124352,L,-0.44286,0.338672,0.71492,1.6800000000000002,-26.110000000000003,-38.85,0
1786849312.7251496,R,-0.178364,-0.18544,-0.930616,1.1900000000000002,16.17,21.770000000000003,0
1786849312.7271528,L,-0.459208,0.349652,0.696376,8.540000000000001,-22.89,-36.470000000000006,0
1786849312.7397134,R,-0.167628,-0.164456,-0.891332,1.7500000000000002,-12.670000000000002,40.53,0
1786849312.742794,L,-0.46238,0.361852,0.693448,7.910000000000001,-11.760000000000002,-35.0,0
1786849312.7543116,R,-0.19276,-0.060024,-0.887428,20.160000000000004,-27.230000000000004,48.300000000000004,0
1786849312.7573152,L,-0.462624,0.374784,0.732488,-2.1,-2.0300000000000002,-30.240000000000002,0
1786849312.769329,R,-0.157868,-0.036844,-0.8979199999999999,17.150000000000002,-11.830000000000002,40.39,0
1786849312.7728355,L,-0.469456,0.371612,0.76738,-15.05,6.65,-22.96,0
1786849312.784415,R,-0.047335999999999996,-0.055388,-0.844484,9.24,18.060000000000002,49.56,0
1786849312.7874882,L,-0.47726399999999997,0.361364,0.788364,-24.080000000000002,11.06,-18.48,0
1786849312.799725,R,-0.077348,0.069052,-1.179252,-4.9,-19.6,62.160000000000004,0
1786849312.802245,L,-0.475312,0.34355199999999997,0.800808,-28.980000000000004,14.000000000000002,-15.820000000000002,0
1786849312.8147743,R,-0.16836,0.103212,-0.912316,-59.99000000000001,-77.07000000000001,52.43000000000001,0
1786849312.817778,L,-0.475068,0.331108,0.805932,-27.300000000000004,13.020000000000001,-13.930000000000001,0
1786849312.8297477,R,-0.158356,0.027572,-0.771284,-38.290000000000006,-115.22000000000001,31.360000000000003,0
1786849312.832255,L,-0.489708,0.323544,0.864248,-24.360000000000003,17.01,-10.850000000000001,0
1786849312.8443253,R,-0.245464,-0.060511999999999996,-0.597556,3.9200000000000004,-88.48,16.450000000000003,0
1786849312.8473291,L,-0.504104,0.293288,0.9423279999999999,-25.060000000000002,14.490000000000002,-8.96,0
1786849312.8593462,R,-0.278404,-0.2013,-0.46726,56.7,-51.52,20.3,0
1786849312.8624654,L,-0.493124,0.272792,0.943304,-27.720000000000002,5.390000000000001,-7.3500000000000005,0
1786849312.874542,R,-0.1708,-0.19032,-0.631228,96.04,-74.76,40.74,0
1786849312.8775454,L,-0.49776,0.254004,0.902556,-29.540000000000003,1.8200000000000003,-3.9200000000000004,0
1786849312.889777,R,-0.309392,-0.04514,-0.5873079999999999,68.95,-115.99000000000001,42.980000000000004,0
1786849312.892831,L,-0.49776,0.251808,0.846924,-31.640000000000004,2.3800000000000003,-1.8900000000000001,0
1786849312.9043467,R,-0.36478,0.025863999999999998,-0.558028,46.830000000000005,-132.93,40.53,0
1786849312.9068844,L,-0.493856,0.240828,0.799588,-37.940000000000005,9.870000000000001,1.61,0
1786849312.9195344,R,-0.287432,-0.040992,-0.468968,33.74,-131.53,29.820000000000004,0
1786849312.9225833,L,-0.506056,0.229604,0.748104,-33.6,9.870000000000001,5.180000000000001,0
1786849312.9344046,R,-0.24278,-0.157624,-0.604144,66.29,-158.83,30.380000000000003,0
1786849312.9384081,L,-0.49263599999999996,0.215696,0.698816,-28.000000000000004,12.530000000000001,7.280000000000001,0
1786849312.9494915,R,-0.421876,-0.056364,-0.551928,33.88,-104.58000000000001,21.840000000000003,0
1786849312.9525332,L,-0.508984,0.193492,0.648552,-29.050000000000004,16.310000000000002,10.850000000000001,0
1786849312.9646668,R,-0.498736,0.012931999999999999,-0.61488,-0.77,-90.72000000000001,13.860000000000001,0
1786849312.968713,L,-0.50996,0.11834,0.59414,-28.700000000000003,26.740000000000002,10.920000000000002,0
1786849312.9795964,R,-0.557784,0.015127999999999999,-0.509716,-51.660000000000004,-108.64000000000001,16.66,0
1786849312.9826531,L,-0.513132,0.088328,0.525576,-22.05,28.560000000000002,12.600000000000001,0
1786849312.9953299,R,-0.540216,0.043188,-0.615856,-83.79,-115.36000000000001,11.340000000000002,0
1786849312.9973297,L,-0.505324,0.072712,0.45994,-22.610000000000003,38.010000000000005,4.760000000000001,0
1786849313.0089095,R,-0.613904,-0.013176,-0.593896,-30.730000000000004,-101.99000000000001,26.740000000000002,0
1786849313.0124166,L,-0.516548,0.090036,0.401624,-21.42,50.190000000000005,4.970000000000001,0
1786849313.0245523,R,-0.663436,0.049288,-0.760548,3.5700000000000003,-133.56,60.760000000000005,0
1786849313.0275564,L,-0.5392399999999999,0.095404,0.367952,-9.450000000000001,64.47000000000001,4.48,0
1786849313.0397806,R,-0.7573759999999999,-0.016347999999999998,-0.746152,19.180000000000003,-136.36,55.93000000000001,0
1786849313.0428364,L,-0.556564,0.110288,0.36941599999999997,8.260000000000002,75.74000000000001,1.33,0
1786849313.055683,R,-0.7259,0.07686,-0.7564,14.700000000000001,-133.56,62.370000000000005,0
1786849313.0576847,L,-0.598532,0.141764,0.375516,24.500000000000004,87.15,-1.8900000000000001,0
1786849313.0693297,R,-0.775676,-0.002196,-0.763232,20.23,-112.07000000000001,67.76,0
1786849313.0728374,L,-0.630496,0.202032,0.397964,2.8000000000000003,114.03000000000002,-0.42000000000000004,0
1786849313.0844452,R,-0.7991,-0.003904,-0.71614,16.03,-125.44000000000001,75.18,0
1786849313.0874882,L,-0.740784,0.139324,0.462624,-6.0200000000000005,126.49000000000001,8.75,0
1786849313.0991652,R,-0.921588,-0.08784,-0.696132,18.130000000000003,-148.26000000000002,75.67,0
1786849313.1026757,L,-0.723704,0.175192,0.49263599999999996,11.200000000000001,133.07000000000002,-5.8100000000000005,0
1786849313.1147726,R,-1.006744,0.016104,-0.8113,22.610000000000003,-167.79000000000002,97.86000000000001,0
1786849313.1178386,L,-0.7659159999999999,0.23277599999999998,0.52826,5.180000000000001,140.35000000000002,-3.3600000000000003,0
1786849313.1296275,R,-0.913292,-0.072468,-0.762012,46.690000000000005,-166.88000000000002,117.67000000000002,0
1786849313.132646,L,-0.80398,0.269376,0.618296,2.3800000000000003,149.17000000000002,5.95,0
1786849313.144327,R,-0.898652,-0.090524,-0.797148,58.31,-157.85000000000002,116.27000000000001,0
1786849313.1473331,L,-0.8418,0.31354,0.743712,-3.8500000000000005,152.95000000000002,21.560000000000002,0
1786849313.1593466,R,-0.941108,-0.106872,-0.84302,67.55000000000001,-137.34,109.41000000000001,0
1786849313.1626291,L,-0.848388,0.35502,0.824964,-32.410000000000004,160.65,40.81,0
1786849313.1746507,R,-0.986248,-0.081252,-0.814228,53.760000000000005,-103.53000000000002,110.18,0
1786849313.1776576,L,-0.8620519999999999,0.336476,0.850096,-67.13000000000001,167.93,67.76,0
1786849313.189459,R,-0.981856,-0.053191999999999996,-0.742248,59.64000000000001,-92.19000000000001,120.82000000000001,0
1786849313.1925738,L,-0.886452,0.21106,0.865712,-83.23,163.17000000000002,85.96000000000001,0
1786849313.2046597,R,-1.01504,-0.073444,-0.7137,53.06,-88.69000000000001,131.11,0
1786849313.207409,L,-0.901336,0.124196,0.85644,-67.55000000000001,146.58,81.69000000000001,0
1786849313.2194262,R,-1.010404,-0.083936,-0.683688,56.7,-95.34,144.55,0
1786849313.2225373,L,-0.911584,0.123464,0.815692,-35.77,127.19000000000001,73.01,0
1786849313.2345934,R,-1.013332,-0.17934,-0.732,50.260000000000005,-92.12,140.91000000000003,0
1786849313.2497716,R,-1.018944,-0.146888,-0.60268,34.720000000000006,-85.47000000000001,120.82000000000001,0
1786849313.2518709,L,-0.9176839999999999,0.1281,0.766648,3.22,109.20000000000002,68.25,0
1786849313.2528708,L,-0.914756,0.12956399999999998,0.719556,43.75000000000001,97.02000000000001,62.370000000000005,0
1786849313.2645278,R,-1.041148,-0.156404,-0.60878,7.07,-77.63000000000001,104.65,0
1786849313.2675848,L,-0.905484,0.14396,0.686616,68.32000000000001,94.22000000000001,58.730000000000004,0
1786849313.2819304,L,-0.920612,0.136884,0.673684,81.41000000000001,96.46000000000001,55.370000000000005,0
1786849313.2945294,R,-0.998448,-0.17934,-0.58316,-7.000000000000001,-58.52,76.09,0
1786849313.295755,R,-0.983808,-0.17299599999999998,-0.599752,-6.090000000000001,-36.050000000000004,50.190000000000005,0
1786849313.297757,L,-0.915,0.126392,0.684176,92.75000000000001,94.08000000000001,49.63,0
1786849313.30933,R,-0.9472079999999999,-0.185196,-0.58438,-6.580000000000001,-31.150000000000002,32.34,0
1786849313.3128376,L,-0.920856,0.134688,0.692716,104.44000000000001,84.7,37.1,0
1786849313.3244114,R,-0.962336,-0.110044,-0.602924,-30.520000000000003,-31.780000000000005,17.71,0
1786849313.327448,L,-0.926956,0.157868,0.68076,108.99000000000001,78.33000000000001,23.590000000000003,0
1786849313.3395786,R,-0.903044,-0.033184,-0.553392,-25.060000000000002,-19.810000000000002,15.750000000000002,0
1786849313.342754,L,-0.9272,0.17202,0.675636,107.45000000000002,74.97000000000001,11.06,0
1786849313.3545594,R,-0.900848,-0.03904,-0.5978,-19.180000000000003,-11.55,21.21,0
1786849313.3575625,L,-0.923052,0.203252,0.680516,100.31000000000002,72.94000000000001,1.61,0
1786849313.369689,R,-0.898896,-0.034159999999999996,-0.6143919999999999,-48.230000000000004,-6.090000000000001,21.42,0
1786849313.372742,L,-0.918416,0.231068,0.69784,88.83000000000001,72.03,-2.9400000000000004,0
1786849313.3843815,R,-0.844728,0.005124,-0.568032,-34.86000000000001,7.280000000000001,18.48,0
1786849313.3873858,L,-0.915244,0.253028,0.721996,81.06,66.22000000000001,-6.790000000000001,0
1786849313.3997726,R,-0.864736,0.009516,-0.591456,-35.35,15.120000000000001,24.080000000000002,0
1786849313.4022775,L,-0.907436,0.271816,0.73566,79.31,56.07000000000001,-8.47,0
1786849313.414576,R,-0.848144,0.046116,-0.579256,-53.2,21.42,27.230000000000004,0
1786849313.41758,L,-0.896944,0.288164,0.747616,82.74000000000001,42.980000000000004,-9.590000000000002,0
1786849313.4295955,R,-0.863028,0.051484,-0.518988,-61.040000000000006,31.640000000000004,7.000000000000001,0
1786849313.4326553,L,-0.8830359999999999,0.315004,0.742004,78.33000000000001,32.410000000000004,-6.86,0
1786849313.444725,R,-0.879132,0.028548,-0.571936,-47.39000000000001,36.260000000000005,-8.260000000000002,0
1786849313.4477298,L,-0.873032,0.314272,0.729316,66.5,24.64,-1.05,0
1786849313.45983,R,-0.868884,0.031964,-0.553148,-50.050000000000004,40.18000000000001,-15.400000000000002,0
1786849313.4618866,L,-0.8708359999999999,0.30012,0.732244,50.190000000000005,17.64,2.45,0
1786849313.4744103,R,-0.844728,0.059536,-0.546316,-30.17,38.85,-19.040000000000003,0
1786849313.4774144,L,-0.870592,0.28255199999999997,0.733464,39.34,7.210000000000001,2.3800000000000003,0
1786849313.4893262,R,-0.819596,0.082716,-0.548024,-21.700000000000003,38.080000000000005,-19.040000000000003,0
1786849313.4928355,L,-0.869372,0.266204,0.724192,28.770000000000003,-6.300000000000001,0.42000000000000004,0
1786849313.504451,R,-0.8164239999999999,0.093452,-0.546316,-22.610000000000003,38.71,-17.71,0
1786849313.507623,L,-0.870348,0.257176,0.697352,16.8,-18.830000000000002,-2.24,0
1786849313.519642,R,-0.819596,0.11223999999999999,-0.552904,-33.39,42.00000000000001,-17.64,0
1786849313.5226662,L,-0.8784,0.262056,0.6624599999999999,3.2900000000000005,-26.46,-3.5000000000000004,0
1786849313.5344045,R,-0.8227679999999999,0.115656,-0.55998,-47.32000000000001,47.11000000000001,-19.39,0
1786849313.5374093,L,-0.877424,0.255956,0.662216,-4.550000000000001,-34.650000000000006,-3.0100000000000002,0
1786849313.5495424,R,-0.8113,0.133468,-0.52582,-48.790000000000006,41.86000000000001,-17.57,0
1786849313.5526094,L,-0.873764,0.261812,0.653188,-8.540000000000001,-45.92,-6.790000000000001,0
1786849313.564631,R,-0.824476,0.14005599999999999,-0.512156,-32.13,31.500000000000004,-14.770000000000001,0
1786849313.5677075,L,-0.8732759999999999,0.276452,0.63074,-4.0600000000000005,-58.870000000000005,-10.99,0
1786849313.5798287,R,-0.829112,0.15372,-0.505568,-19.39,25.270000000000003,-11.690000000000001,0
1786849313.5828428,L,-0.8723,0.290604,0.629764,-1.54,-71.82000000000001,-12.600000000000001,0
1786849313.5951204,R,-0.81374,0.18422,-0.536556,-10.780000000000001,26.950000000000003,-8.82,0
1786849313.5971217,L,-0.8866959999999999,0.293288,0.61976,-12.250000000000002,-78.75000000000001,-13.860000000000001,0
1786849313.6088603,R,-0.8164239999999999,0.20105599999999998,-0.574376,-17.92,34.790000000000006,-14.000000000000002,0
1786849313.6123672,L,-0.884988,0.289872,0.611464,-31.220000000000002,-78.82000000000001,-17.78,0
1786849313.624398,R,-0.791048,0.20984,-0.5416799999999999,-36.61000000000001,60.34,-15.47,0
1786849313.627402,L,-0.8866959999999999,0.31476,0.624884,-39.410000000000004,-86.38000000000001,-12.88,0
1786849313.6395001,R,-0.782264,0.220576,-0.555344,-38.57,75.60000000000001,-8.610000000000001,0
1786849313.6420066,L,-0.871812,0.324276,0.537532,-37.59,-93.73,-9.38,0
1786849313.6546524,R,-0.815448,0.22326,-0.576328,-46.900000000000006,59.71000000000001,-5.180000000000001,0
1786849313.6577368,L,-0.874984,0.323544,0.523624,-35.77,-84.00000000000001,-9.940000000000001,0
1786849313.6693234,R,-0.792268,0.19763999999999998,-0.577304,-50.96000000000001,38.43000000000001,4.2700000000000005,0
1786849313.6728306,L,-0.875472,0.304024,0.543144,-21.770000000000003,-87.08000000000001,-10.15,0
1786849313.6843498,R,-0.772016,0.211304,-0.531188,-32.13,11.410000000000002,17.5,0
1786849313.6873536,L,-0.871568,0.301096,0.51728,-12.180000000000001,-90.09,-9.450000000000001,0
1786849313.6997817,R,-0.79544,0.203252,-0.523868,-22.96,4.69,12.110000000000001,0
1786849313.7022834,L,-0.8757159999999999,0.290116,0.50142,-10.57,-88.9,-13.510000000000002,0
1786849313.71443,R,-0.8017839999999999,0.19519999999999998,-0.537532,-19.180000000000003,8.96,8.120000000000001,0
1786849313.7174373,L,-0.876448,0.294996,0.492148,-10.290000000000001,-89.32000000000001,-16.94,0
1786849313.7294524,R,-0.794464,0.20862,-0.549488,-27.020000000000003,8.75,5.11,0
1786849313.7324939,L,-0.841068,0.301584,0.46848,-8.260000000000002,-91.00000000000001,-13.790000000000001,0
1786849313.7445054,R,-0.825452,0.237656,-0.457012,-31.080000000000002,14.000000000000002,2.24,0
1786849313.747509,L,-0.849364,0.323544,0.46677199999999996,-7.420000000000001,-90.51,-13.440000000000001,0
1786849313.759623,R,-0.82838,0.266448,-0.488732,-52.50000000000001,27.37,-5.250000000000001,0
1786849313.762729,L,-0.821548,0.31646799999999997,0.448228,7.420000000000001,-93.87,-9.31,0
1786849313.7753408,R,-0.81008,0.26352,-0.525332,-88.62,45.64000000000001,-15.260000000000002,0
1786849313.77734,L,-0.81008,0.327692,0.423828,24.570000000000004,-91.91000000000001,-0.28,0
1786849313.7893558,R,-0.787632,0.292312,-0.534604,-88.27000000000001,52.290000000000006,-5.95,0
1786849313.7924776,L,-0.8103239999999999,0.328912,0.407724,26.040000000000003,-85.61000000000001,1.9600000000000002,0
1786849313.804305,R,-0.853756,0.391864,-0.6624599999999999,-84.98,33.11000000000001,14.21,0
1786849313.8069906,L,-0.8103239999999999,0.314272,0.405284,16.66,-76.30000000000001,-2.1,0
1786849313.8228064,L,-0.797392,0.320616,0.398452,20.580000000000002,-67.34,-6.16,0
1786849313.8353264,R,-0.648796,0.146156,-0.49019599999999997,-90.23,26.67,46.410000000000004,0
1786849313.8373263,L,-0.788608,0.317932,0.417728,29.680000000000003,-62.650000000000006,-5.460000000000001,0
1786849313.8524046,L,-0.7537159999999999,0.304512,0.353312,57.61000000000001,-56.35000000000001,1.33,0
1786849313.8645446,R,-0.820572,0.29426399999999997,-0.539484,-43.89000000000001,25.060000000000002,4.2,0
1786849313.8665478,R,-0.787144,0.32696,-0.536068,-52.36000000000001,22.400000000000002,-1.2600000000000002,0
1786849313.8685522,L,-0.763232,0.332328,0.332816,83.30000000000001,-45.92,5.53,0
1786849313.8796918,R,-0.753472,0.330864,-0.55266,-56.77,15.47,-0.56,0
1786849313.8828657,L,-0.759084,0.359412,0.350628,94.36000000000001,-43.540000000000006,5.8100000000000005,0
1786849313.894508,R,-0.782264,0.348676,-0.552904,-68.74000000000001,20.580000000000002,5.8100000000000005,0
1786849313.8966691,R,-0.777384,0.30963599999999997,-0.581452,-85.68,31.080000000000002,0.49000000000000005,0
1786849313.8976653,L,-0.746884,0.35648399999999997,0.38234799999999997,112.84000000000002,-50.82000000000001,2.3800000000000003,0
1786849313.909277,R,-0.7573759999999999,0.312808,-0.568276,-77.7,34.510000000000005,-2.7300000000000004,0
1786849313.9127858,L,-0.7659159999999999,0.381372,0.324032,135.03,-44.52,-2.24,0
1786849313.9255064,R,-0.7573759999999999,0.345016,-0.552416,-58.24000000000001,28.910000000000004,0.56,0
1786849313.9275053,L,-0.736636,0.391132,0.330132,126.70000000000002,-30.660000000000004,-6.23,0
1786849313.9395194,R,-0.746152,0.38186,-0.539484,-50.61000000000001,17.080000000000002,5.880000000000001,0
1786849313.9426334,L,-0.74298,0.394304,0.35258,111.51,-14.980000000000002,-3.8500000000000005,0
1786849313.954326,R,-0.743224,0.392352,-0.544364,-49.7,7.840000000000001,9.590000000000002,0
1786849313.9574556,L,-0.72956,0.41504399999999997,0.372832,96.88000000000001,-6.86,-3.9200000000000004,0
1786849313.9698098,R,-0.7400519999999999,0.369904,-0.569252,-47.74,6.16,12.740000000000002,0
1786849313.9719453,L,-0.722972,0.421144,0.368684,81.97000000000001,-0.14,0.6300000000000001,0
1786849313.9853714,R,-0.728828,0.358192,-0.5848679999999999,-37.1,5.74,13.580000000000002,0
1786849313.987369,L,-0.732244,0.42919599999999997,0.360144,67.83000000000001,12.250000000000002,3.9200000000000004,0
1786849313.9988866,R,-0.74908,0.378932,-0.559492,-21.42,6.090000000000001,15.47,0
1786849314.0023985,L,-0.739564,0.4209,0.360388,54.25000000000001,27.160000000000004,2.66,0
1786849314.0147893,R,-0.742004,0.396988,-0.542168,-11.690000000000001,0.7000000000000001,15.820000000000002,0
1786849314.0177932,L,-0.749324,0.44212799999999997,0.335256,61.040000000000006,39.13,8.190000000000001,0
1786849314.029388,R,-0.718824,0.418948,-0.5404599999999999,-21.28,-4.970000000000001,13.160000000000002,0
1786849314.0318918,L,-0.74176,0.446276,0.391132,65.66000000000001,43.89000000000001,-6.0200000000000005,0
1786849314.0446894,R,-0.7278519999999999,0.386496,-0.57462,-31.430000000000003,5.250000000000001,17.290000000000003,0
1786849314.0469127,L,-0.744444,0.457012,0.41114,65.52000000000001,45.36000000000001,-3.7800000000000002,0
1786849314.0595095,R,-0.7339519999999999,0.379176,-0.5651039999999999,-42.910000000000004,17.85,12.530000000000001,0
1786849314.0625656,L,-0.749812,0.44773999999999997,0.43432,62.86000000000001,44.940000000000005,-3.8500000000000005,0
1786849314.0746357,R,-0.7117479999999999,0.385276,-0.558516,-35.84,14.560000000000002,11.270000000000001,0
1786849314.0776436,L,-0.753228,0.446276,0.455548,61.46000000000001,44.45,-5.880000000000001,0
1786849314.0894296,R,-0.725412,0.34599199999999997,-0.544852,-25.69,6.720000000000001,9.940000000000001,0
1786849314.0925047,L,-0.765672,0.46921199999999996,0.455792,48.370000000000005,47.88,-8.610000000000001,0
1786849314.1047022,R,-0.744932,0.363072,-0.55144,-15.680000000000001,5.390000000000001,6.720000000000001,0
1786849314.107738,L,-0.766404,0.471652,0.468236,31.640000000000004,53.2,-9.870000000000001,0
1786849314.1195004,R,-0.732976,0.39161999999999997,-0.555832,-5.11,3.0100000000000002,2.24,0
1786849314.1225626,L,-0.766404,0.490928,0.465064,14.420000000000002,58.730000000000004,-11.55,0
1786849314.1347013,R,-0.72346,0.412116,-0.55876,1.4700000000000002,2.3800000000000003,0.49000000000000005,0
1786849314.1378052,L,-0.767868,0.502152,0.46604,4.970000000000001,64.61,-11.55,0
1786849314.1496286,R,-0.717116,0.41236,-0.569496,-5.880000000000001,9.030000000000001,3.3600000000000003,0
1786849314.1526601,L,-0.771284,0.49946799999999997,0.4819,18.55,63.35000000000001,-14.14,0
1786849314.1643295,R,-0.705404,0.435296,-0.578524,-15.47,19.46,2.24,0
1786849314.167334,L,-0.7524959999999999,0.473116,0.534604,36.96,60.2,-15.47,0
1786849314.17935,R,-0.71126,0.4392,-0.5551,-15.47,13.440000000000001,1.12,0
1786849314.1826532,L,-0.778848,0.546804,0.526308,40.53,54.32000000000001,-16.520000000000003,0
1786849314.1946647,R,-0.706624,0.395524,-0.549244,-11.06,1.61,-0.56,0
1786849314.1977053,L,-0.749812,0.532164,0.549244,33.6,48.300000000000004,-18.76,0
1786849314.2098768,R,-0.720532,0.384788,-0.55266,-3.08,-1.2600000000000002,0.42000000000000004,0
1786849314.211893,L,-0.7549359999999999,0.549244,0.545828,20.860000000000003,44.1,-15.96,0
1786849314.2244742,R,-0.711992,0.397476,-0.577548,-1.12,-0.07,1.54,0
1786849314.227512,L,-0.764208,0.548512,0.533628,12.740000000000002,40.25000000000001,-12.040000000000001,0
1786849314.2390196,R,-0.7032079999999999,0.393084,-0.554124,4.83,2.5900000000000003,2.3800000000000003,0
1786849314.2425246,L,-0.759572,0.553392,0.533384,2.1,41.09,-8.05,0
1786849314.2545342,R,-0.71248,0.39527999999999996,-0.565592,3.9200000000000004,1.54,-2.87,0
1786849314.2577205,L,-0.7549359999999999,0.55266,0.540948,-8.82,39.830000000000005,-7.07,0
1786849314.269732,R,-0.713944,0.399184,-0.572912,-1.6800000000000002,3.7800000000000002,-3.9200000000000004,0
1786849314.2722378,L,-0.755912,0.5428999999999999,0.537288,-6.86,34.650000000000006,-3.9200000000000004,0
1786849314.2847614,R,-0.710284,0.421144,-0.576572,-8.47,7.630000000000001,-4.0600000000000005,0
1786849314.2877655,L,-0.755424,0.534604,0.543876,4.83,25.830000000000002,-4.48,0
1786849314.2997863,R,-0.701012,0.414556,-0.558028,-11.55,6.790000000000001,-2.24,0
1786849314.3022885,L,-0.75396,0.535336,0.539484,7.7700000000000005,20.3,-3.7800000000000002,0
1786849314.3174102,L,-0.750056,0.533384,0.540948,2.87,16.1,-3.6400000000000006,0
1786849314.3296208,R,-0.719556,0.39039999999999997,-0.5612,-8.4,5.95,-0.42000000000000004,0
1786849314.3316836,R,-0.7076,0.396012,-0.596336,-4.2,5.8100000000000005,0.35000000000000003,0
1786849314.3326838,L,-0.745176,0.547292,0.538996,-4.2,11.97,-0.9100000000000001,0
1786849314.3445063,R,-0.7093079999999999,0.402356,-0.603412,5.53,13.160000000000002,3.43,0
1786849314.347751,L,-0.739808,0.542656,0.535824,-11.690000000000001,7.630000000000001,4.550000000000001,0
1786849314.359768,R,-0.7166279999999999,0.40089199999999997,-0.573156,0.77,22.96,2.0300000000000002,0
1786849314.3622754,L,-0.74786,0.527528,0.512888,-13.72,3.2900000000000005,8.47,0
1786849314.3747947,R,-0.715164,0.413336,-0.580476,-8.75,18.340000000000003,-4.0600000000000005,0
1786849314.3778002,L,-0.755912,0.505324,0.502396,-4.83,0.42000000000000004,7.630000000000001,0
1786849314.3894215,R,-0.70028,0.424804,-0.5673,-18.41,14.070000000000002,-5.95,0
1786849314.3926454,L,-0.745908,0.511668,0.505568,-5.11,-2.8000000000000003,4.83,0
1786849314.4047651,R,-0.6883239999999999,0.41382399999999997,-0.57828,-16.8,18.69,-2.87,0
1786849314.4195442,R,-0.6907639999999999,0.408456,-0.5734,-11.06,21.560000000000002,-2.66,0
1786849314.4346404,R,-0.689788,0.423584,-0.591944,-6.580000000000001,23.380000000000003,-4.69,0
1786849314.437653,L,-0.747372,0.510448,0.501176,-8.120000000000001,-6.16,3.08,0
1786849314.4386551,L,-0.747128,0.509228,0.49019599999999997,-6.23,-8.610000000000001,1.4000000000000001,0
1786849314.4496698,R,-0.693936,0.422608,-0.58072,-1.8900000000000001,17.080000000000002,-6.65,0
1786849314.4531767,L,-0.743224,0.519232,0.482632,-10.080000000000002,-9.31,2.5900000000000003,0
1786849314.45468,L,-0.740296,0.5246,0.478972,-17.080000000000002,-11.06,5.460000000000001,0
1786849314.4647293,R,-0.699548,0.4148,-0.580964,0.21000000000000002,7.140000000000001,-6.44,0
1786849314.4670029,L,-0.747616,0.522648,0.475312,-21.42,-13.72,8.680000000000001,0
1786849314.4788938,R,-0.70394,0.428708,-0.597312,0.77,-0.77,-8.610000000000001,0
1786849314.4824016,L,-0.76006,0.528504,0.460916,-23.730000000000004,-14.770000000000001,11.97,0
1786849314.5094748,R,-0.698816,0.42212,-0.6156119999999999,3.5000000000000004,-4.48,-13.020000000000001,0
1786849314.5116277,R,-0.701012,0.425292,-0.6426959999999999,-0.42000000000000004,1.61,-18.830000000000002,0
1786849314.512628,L,-0.765184,0.509472,0.46555199999999997,-21.07,-18.130000000000003,13.580000000000002,0
1786849314.527814,L,-0.771772,0.498736,0.46848,-14.560000000000002,-21.910000000000004,12.250000000000002,0
1786849314.5288138,L,-0.769576,0.501176,0.469944,-13.370000000000001,-19.950000000000003,12.81,0
1786849314.5394166,R,-0.693936,0.449936,-0.629276,-11.830000000000002,8.260000000000002,-22.750000000000004,0
1786849314.5415175,R,-0.69174,0.445544,-0.574864,-13.23,9.590000000000002,-21.35,0
1786849314.5425174,L,-0.771528,0.503372,0.454084,-21.910000000000004,-15.120000000000001,14.000000000000002,0
1786849314.5545292,R,-0.687348,0.46433199999999997,-0.56608,11.97,-6.370000000000001,-24.92,0
1786849314.5576208,L,-0.768112,0.492392,0.454328,-37.31,-11.340000000000002,12.46,0
1786849314.5697544,R,-0.694912,0.406504,-0.545828,21.21,3.9200000000000004,-11.13,0
1786849314.572861,L,-0.771528,0.4758,0.457744,-31.85,-18.62,14.14,0
1786849314.5843809,R,-0.6895439999999999,0.44334799999999996,-0.567056,5.6000000000000005,3.9200000000000004,-8.75,0
1786849314.5873864,L,-0.779092,0.480436,0.438956,-20.3,-25.69,10.780000000000001,0
1786849314.5993989,R,-0.6919839999999999,0.43724799999999997,-0.575596,5.390000000000001,-11.13,-9.450000000000001,0
1786849314.6019135,L,-0.7759199999999999,0.477996,0.4331,-13.020000000000001,-31.85,7.700000000000001,0
1786849314.6145284,R,-0.709796,0.410408,-0.556076,3.22,-20.37,-10.71,0
1786849314.6175315,L,-0.768844,0.47702,0.430904,-11.06,-35.980000000000004,5.74,0
1786849314.629189,R,-0.71614,0.400404,-0.554856,0.8400000000000001,-18.130000000000003,-13.930000000000001,0
1786849314.6326985,L,-0.766404,0.487268,0.415288,-14.980000000000002,-29.750000000000004,6.930000000000001,0
1786849314.6443543,R,-0.715896,0.393328,-0.558028,0.56,-10.290000000000001,-19.250000000000004,0
1786849314.6473594,L,-0.765672,0.475068,0.397476,-24.220000000000002,-19.740000000000002,7.7700000000000005,0
1786849314.6609619,R,-0.71004,0.406504,-0.570228,2.45,-4.970000000000001,-18.69,0
1786849314.662103,L,-0.77104,0.460428,0.397476,-27.650000000000002,-6.86,9.030000000000001,0
1786849314.6751995,R,-0.7056479999999999,0.400648,-0.561932,1.12,-2.45,-16.8,0
1786849314.689983,R,-0.7137,0.401136,-0.559736,-0.9800000000000001,1.33,-13.3,0
1786849314.7045498,R,-0.723704,0.396988,-0.565348,3.8500000000000005,-1.54,-10.71,0
1786849314.706554,L,-0.768112,0.458964,0.39283999999999997,-32.900000000000006,2.9400000000000004,3.2900000000000005,0
1786849314.7196822,R,-0.740296,0.389668,-0.554856,14.770000000000001,-9.8,-12.110000000000001,0
1786849314.7237442,L,-0.770308,0.45994,0.400648,-33.11000000000001,4.41,-0.28,0
1786849314.7247434,L,-0.771528,0.47214,0.397964,-27.44,-0.35000000000000003,-1.2600000000000002,0
1786849314.726759,L,-0.766404,0.474092,0.403088,-14.700000000000001,-8.89,1.61,0
1786849314.7343125,R,-0.726388,0.360388,-0.561932,25.69,-17.220000000000002,-12.250000000000002,0
1786849314.7493308,R,-0.727364,0.357216,-0.541436,24.220000000000002,-12.39,-10.080000000000002,0
1786849314.7643564,R,-0.726876,0.355996,-0.552416,24.360000000000003,-7.420000000000001,-7.630000000000001,0
1786849314.76736,L,-0.760548,0.479948,0.4026,-5.95,-12.39,2.5200000000000005,0
1786849314.7683601,L,-0.774456,0.47702,0.39967199999999997,-0.28,-16.450000000000003,1.33,0
1786849314.76936,L,-0.77104,0.476288,0.389424,1.05,-18.130000000000003,1.12,0
1786849314.779375,R,-0.7178479999999999,0.35770399999999997,-0.55266,21.490000000000002,-9.24,-5.180000000000001,0
1786849314.781882,L,-0.787388,0.479216,0.382592,0.14,-16.520000000000003,0.6300000000000001,0
1786849314.796406,R,-0.7339519999999999,0.353556,-0.606096,17.57,-12.46,-5.460000000000001,0
1786849314.7974062,L,-0.783484,0.46799199999999996,0.377224,-0.21000000000000002,-10.780000000000001,-0.42000000000000004,0
1786849314.8099258,R,-0.715164,0.3599,-0.630252,2.9400000000000004,-23.240000000000002,-11.830000000000002,0
1786849314.812059,L,-0.787388,0.446032,0.382104,-4.48,-7.910000000000001,-5.460000000000001,0
1786849314.824576,R,-0.764452,0.332084,-0.50996,17.92,-17.290000000000003,-17.080000000000002,0
1786849314.8275805,L,-0.788364,0.4453,0.400648,-3.6400000000000006,-11.06,-9.31,0
1786849314.839594,R,-0.75884,0.289628,-0.538996,34.580000000000005,7.98,-20.44,0
1786849314.842101,L,-0.782996,0.447496,0.40211199999999997,-9.66,-16.380000000000003,-15.400000000000002,0
1786849314.854624,R,-0.797392,0.34355199999999997,-0.57828,60.34,21.630000000000003,-29.19,0
1786849314.8596282,L,-0.785436,0.442616,0.411872,-14.21,-18.48,-20.51,0
1786849314.869643,R,-0.7178479999999999,0.292312,-0.55388,45.57000000000001,17.85,-32.13,0
1786849314.87215,L,-0.775432,0.438224,0.406504,-9.940000000000001,-14.280000000000001,-20.930000000000003,0
1786849314.8846674,R,-0.737368,0.299876,-0.56486,39.900000000000006,13.3,-27.720000000000002,0
1786849314.8876708,L,-0.766648,0.453596,0.395768,-6.790000000000001,-3.99,-14.070000000000002,0
1786849314.8996897,R,-0.726388,0.298168,-0.58194,29.610000000000003,5.95,-23.590000000000003,0
1786849314.9031978,L,-0.761768,0.460184,0.408456,-8.260000000000002,0.9800000000000001,-8.05,0
1786849314.9143326,R,-0.70028,0.300852,-0.59048,17.360000000000003,1.1900000000000002,-17.5,0
1786849314.9174428,L,-0.76006,0.465796,0.415288,-8.75,9.590000000000002,-2.5900000000000003,0
1786849314.9294596,R,-0.715164,0.32452,-0.625616,16.17,2.1700000000000004,-11.13,0
1786849314.9444885,R,-0.7015,0.29158,-0.624884,6.090000000000001,2.5200000000000005,-8.610000000000001,0
1786849314.9474971,L,-0.7634759999999999,0.45872,0.44090799999999997,-10.71,10.430000000000001,-2.3800000000000003,0
1786849314.9484928,L,-0.75884,0.451644,0.455548,-6.790000000000001,4.550000000000001,-2.24,0
1786849314.9595077,R,-0.711992,0.303292,-0.611464,-3.43,2.45,-4.41,0
1786849314.9620185,L,-0.769576,0.45627999999999996,0.458476,-3.99,1.05,-4.2700000000000005,0
1786849314.97454,R,-0.7093079999999999,0.303048,-0.615124,-6.65,0.14,-1.4000000000000001,0
1786849314.977543,L,-0.774456,0.454328,0.471408,-5.8100000000000005,-4.550000000000001,-6.790000000000001,0
1786849315.004593,R,-0.716384,0.29768,-0.620736,-9.24,-0.7000000000000001,0.07,0
1786849315.0065973,R,-0.72224,0.300608,-0.63074,-9.66,-1.12,-0.21000000000000002,0
1786849315.0065973,L,-0.759328,0.437004,0.457988,-7.280000000000001,-6.580000000000001,-7.140000000000001,0
1786849315.0081024,L,-0.762988,0.449692,0.460428,-1.8200000000000003,-6.23,-6.23,0
1786849315.0196598,R,-0.726144,0.286944,-0.638548,-8.4,3.5000000000000004,-1.61,0
1786849315.0221696,L,-0.7503,0.442616,0.48312,-6.23,-2.1700000000000004,-2.3800000000000003,0
1786849315.0346875,R,-0.7381,0.288652,-0.626836,-2.66,3.1500000000000004,-2.87,0
1786849315.0376923,L,-0.77226,0.558516,0.435784,-42.63,5.6000000000000005,4.970000000000001,0
1786849315.0497193,R,-0.74054,0.279136,-0.61854,-0.49000000000000005,0.21000000000000002,-3.2900000000000005,0
1786849315.0522292,L,-0.7315119999999999,0.407968,0.492392,-20.51,14.14,6.790000000000001,0
1786849315.064747,R,-0.742736,0.277428,-0.6192719999999999,-2.8000000000000003,-0.7000000000000001,-4.760000000000001,0
1786849315.0797672,R,-0.7388319999999999,0.280356,-0.6095119999999999,-5.670000000000001,-1.1900000000000002,-6.23,0
1786849315.0947952,R,-0.737856,0.28792,-0.608536,-10.15,1.61,-6.720000000000001,0
1786849315.0977986,L,-0.761768,0.421632,0.515328,-6.370000000000001,9.38,-2.3800000000000003,0
1786849315.098799,L,-0.7400519999999999,0.433832,0.495076,-0.8400000000000001,7.840000000000001,-3.7800000000000002,0
1786849315.0998003,L,-0.7512759999999999,0.463356,0.49702799999999997,1.12,11.340000000000002,-2.1700000000000004,0
1786849315.1093206,R,-0.741516,0.299388,-0.602436,-14.350000000000001,3.7100000000000004,-8.47,0
1786849315.1123648,L,-0.743468,0.449448,0.52338,1.2600000000000002,9.31,-0.14,0
1786849315.124472,R,-0.737124,0.305732,-0.593896,-17.080000000000002,3.7100000000000004,-7.98,0
1786849315.1275194,L,-0.748348,0.458232,0.5133759999999999,3.8500000000000005,7.07,-1.8200000000000003,0
1786849315.1398492,R,-0.7381,0.30963599999999997,-0.5885279999999999,-15.680000000000001,2.1,-5.670000000000001,0
1786849315.1423557,L,-0.738588,0.460428,0.519232,3.9200000000000004,8.75,0.14,0
1786849315.1574504,L,-0.7442,0.461648,0.51362,0.35000000000000003,13.370000000000001,2.1,0
1786849315.1698043,R,-0.7412719999999999,0.31354,-0.586576,-7.630000000000001,-2.31,-3.6400000000000006,0
1786849315.171307,R,-0.741516,0.293776,-0.588772,-7.630000000000001,-3.5000000000000004,-4.41,0
1786849315.1723123,L,-0.74664,0.452864,0.526308,-3.5000000000000004,15.96,3.9200000000000004,0
1786849315.1848288,R,-0.740784,0.299876,-0.588772,-7.7700000000000005,-0.77,-5.8100000000000005,0
1786849315.1993966,R,-0.741516,0.302316,-0.58682,-5.74,-1.7500000000000002,-4.970000000000001,0
1786849315.2024298,L,-0.747616,0.444324,0.528992,-3.7100000000000004,16.03,4.0600000000000005,0
1786849315.2034302,L,-0.748592,0.439932,0.532408,-1.9600000000000002,16.1,4.550000000000001,0
1786849315.2146547,R,-0.745908,0.30597599999999997,-0.5795,-1.54,-5.11,-3.8500000000000005,0
1786849315.2177207,L,-0.750788,0.439932,0.533628,-0.49000000000000005,15.820000000000002,4.48,0
1786849315.231237,R,-0.746152,0.303292,-0.5860879999999999,-2.31,-4.550000000000001,-3.7800000000000002,0
1786849315.2322407,L,-0.746152,0.434564,0.537288,0.7000000000000001,16.380000000000003,4.550000000000001,0
1786849315.2447596,R,-0.743712,0.300608,-0.583648,-5.74,-3.0100000000000002,-4.62,0
1786849315.2477636,L,-0.7524959999999999,0.440176,0.546804,-0.6300000000000001,14.350000000000001,4.0600000000000005,0
1786849315.2597768,R,-0.740296,0.30134,-0.579988,-5.32,-4.970000000000001,-4.0600000000000005,0
1786849315.2622833,L,-0.7564,0.442372,0.546316,-2.66,9.8,2.45,0
1786849315.2748024,R,-0.742248,0.297192,-0.579744,-5.670000000000001,-4.69,-3.8500000000000005,0
1786849315.277807,L,-0.754692,0.445788,0.538508,-5.32,8.05,1.33,0
1786849315.2898207,R,-0.736636,0.29304399999999997,-0.582184,-7.840000000000001,-3.0100000000000002,-4.48,0
1786849315.2923272,L,-0.754204,0.447496,0.5367999999999999,-6.580000000000001,5.11,0.14,0
1786849315.304703,R,-0.735904,0.295972,-0.581696,-9.940000000000001,-1.6800000000000002,-5.390000000000001,0
1786849315.3077073,L,-0.754448,0.45994,0.52826,-5.250000000000001,2.7300000000000004,0.49000000000000005,0
1786849315.320074,R,-0.7388319999999999,0.299144,-0.58072,-11.410000000000002,-1.54,-5.95,0
1786849315.322581,L,-0.755912,0.459696,0.525332,-3.1500000000000004,-0.21000000000000002,2.1,0
1786849315.3344023,R,-0.736148,0.29158,-0.582184,-13.020000000000001,-2.66,-7.700000000000001,0
1786849315.3375053,L,-0.759572,0.46555199999999997,0.519964,-1.7500000000000002,-1.33,3.9200000000000004,0
1786849315.349565,R,-0.730536,0.293776,-0.594384,-10.57,-5.11,-7.140000000000001,0
1786849315.3520722,L,-0.7610359999999999,0.461648,0.5170359999999999,-3.99,-1.12,5.460000000000001,0
1786849315.3651443,R,-0.735416,0.288408,-0.599752,-7.7700000000000005,-5.95,-6.790000000000001,0
1786849315.3671486,L,-0.761524,0.45261999999999997,0.514352,-9.31,-0.56,6.44,0
1786849315.379694,R,-0.734196,0.28792,-0.599264,-7.420000000000001,-4.550000000000001,-6.86,0
1786849315.3827283,L,-0.7598159999999999,0.447496,0.512644,-12.040000000000001,-1.7500000000000002,7.210000000000001,0
1786849315.3943872,R,-0.7363919999999999,0.280356,-0.596092,-8.540000000000001,-3.5000000000000004,-7.700000000000001,0
1786849315.3974562,L,-0.757132,0.442616,0.505324,-12.88,-4.0600000000000005,7.140000000000001,0
1786849315.4125786,L,-0.759572,0.449204,0.49458799999999997,-11.830000000000002,-4.9,6.510000000000001,0
1786849315.4245846,R,-0.742248,0.28255199999999997,-0.59658,-13.3,-2.1,-8.680000000000001,0
1786849315.4265902,R,-0.74542,0.282308,-0.600972,-16.73,-1.12,-9.590000000000002,0
1786849315.4275908,L,-0.76128,0.450424,0.4819,-11.13,-5.32,5.880000000000001,0
1786849315.4397101,R,-0.747616,0.280844,-0.605364,-18.270000000000003,-0.7000000000000001,-10.57,0
1786849315.4427507,L,-0.761524,0.454572,0.47214,-13.160000000000002,-1.8900000000000001,3.3600000000000003,0
1786849315.454717,R,-0.747616,0.286944,-0.610244,-18.060000000000002,0.49000000000000005,-10.290000000000001,0
1786849315.4577577,L,-0.7549359999999999,0.448716,0.47238399999999997,-16.17,0.6300000000000001,2.3800000000000003,0
1786849315.4697688,R,-0.74664,0.292312,-0.614636,-16.03,2.5900000000000003,-9.24,0
1786849315.4728553,L,-0.753228,0.456768,0.469456,-19.32,1.8900000000000001,3.3600000000000003,0
1786849315.4843729,R,-0.751764,0.297192,-0.6143919999999999,-16.240000000000002,5.95,-8.4,0
1786849315.4993975,R,-0.755668,0.301096,-0.61122,-15.400000000000002,4.83,-8.75,0
1786849315.5018983,L,-0.748348,0.442372,0.459208,-16.17,-0.77,4.2,0
1786849315.5029032,L,-0.751764,0.451156,0.449692,-13.790000000000001,-2.66,6.0200000000000005,0
1786849315.5147064,R,-0.75762,0.294752,-0.598532,-11.620000000000001,1.4000000000000001,-10.430000000000001,0
1786849315.51705,L,-0.7561559999999999,0.444324,0.43724799999999997,-11.06,1.1900000000000002,4.760000000000001,0
1786849315.5297313,R,-0.753472,0.297192,-0.5978,-12.88,3.7800000000000002,-11.830000000000002,0
1786849315.5327735,L,-0.7622559999999999,0.431392,0.444812,-13.370000000000001,5.8100000000000005,2.7300000000000004,0
1786849315.5444846,R,-0.75152,0.30475599999999997,-0.5897479999999999,-16.03,6.720000000000001,-13.580000000000002,0
1786849315.5475252,L,-0.75396,0.432612,0.451156,-13.790000000000001,4.760000000000001,-0.07,0
1786849315.5597427,R,-0.747372,0.31768799999999997,-0.582672,-18.69,8.680000000000001,-13.440000000000001,0
1786849315.5628448,L,-0.762744,0.432612,0.455548,-15.610000000000001,2.1,1.8200000000000003,0
1786849315.5743651,R,-0.74664,0.326228,-0.581208,-18.270000000000003,7.910000000000001,-12.110000000000001,0
1786849315.5773695,L,-0.7646959999999999,0.41968,0.455548,-6.86,1.33,-0.42000000000000004,0
1786849315.591894,L,-0.76982,0.41968,0.46067199999999997,-0.28,-2.0300000000000002,-3.7800000000000002,0
1786849315.6044188,R,-0.744932,0.331596,-0.579012,-16.87,8.33,-10.780000000000001,0
1786849315.6064234,R,-0.7442,0.335012,-0.5734,-17.150000000000002,10.010000000000002,-10.080000000000002,0
1786849315.6074238,L,-0.788608,0.42675599999999997,0.472872,4.83,0.07,-5.040000000000001,0
1786849315.6195526,R,-0.744688,0.33989199999999997,-0.5712039999999999,-16.03,7.910000000000001,-8.75,0
1786849315.6227999,L,-0.745908,0.425292,0.473848,1.6800000000000002,1.6800000000000002,-4.2,0
1786849315.6346185,R,-0.747372,0.33916,-0.5663239999999999,-13.860000000000001,5.95,-7.140000000000001,0
1786849315.6376605,L,-0.765184,0.428952,0.47482399999999997,-2.0300000000000002,7.700000000000001,-2.5200000000000005,0
1786849315.6499321,R,-0.7537159999999999,0.336232,-0.568032,-11.9,4.970000000000001,-5.8100000000000005,0
1786849315.651933,L,-0.765184,0.426512,0.488,-4.340000000000001,10.080000000000002,-3.08,0
1786849315.6644776,R,-0.752984,0.329156,-0.564372,-8.260000000000002,2.5200000000000005,-5.180000000000001,0
1786849315.6674812,L,-0.7646959999999999,0.430172,0.492148,-6.16,7.280000000000001,-5.880000000000001,0
1786849315.6819975,L,-0.767624,0.432368,0.488,-3.6400000000000006,2.7300000000000004,-6.510000000000001,0
1786849315.696525,R,-0.750056,0.321836,-0.56608,-4.2700000000000005,1.61,-4.83,0
1786849315.697524,L,-0.762744,0.440664,0.488488,0.56,1.4700000000000002,-6.44,0
1786849315.7096088,R,-0.750544,0.32452,-0.561932,-2.9400000000000004,2.3800000000000003,-4.0600000000000005,0
1786849315.7116094,R,-0.754204,0.328912,-0.560956,-4.970000000000001,3.5000000000000004,-3.0100000000000002,0
1786849315.7243264,R,-0.7537159999999999,0.329888,-0.559004,-5.95,3.9200000000000004,-1.7500000000000002,0
1786849315.7273302,L,-0.747372,0.427732,0.491172,-0.77,8.89,-2.45,0
1786849315.7283306,L,-0.753228,0.421388,0.500444,-2.8000000000000003,10.99,-0.6300000000000001,0
1786849315.7393446,R,-0.75884,0.323788,-0.556808,-6.86,3.9200000000000004,-1.4000000000000001,0
1786849315.7428553,L,-0.750544,0.42822,0.510936,-1.6800000000000002,6.090000000000001,-1.2600000000000002,0
1786849315.754435,R,-0.7561559999999999,0.32256799999999997,-0.560712,-7.420000000000001,2.5200000000000005,-1.61,0
1786849315.7574394,L,-0.751032,0.43798,0.501908,0.7000000000000001,3.7100000000000004,-0.9100000000000001,0
1786849315.7694535,R,-0.755424,0.31964,-0.5614439999999999,-6.0200000000000005,-0.9100000000000001,-1.4000000000000001,0
1786849315.7719562,L,-0.7573759999999999,0.444324,0.495076,0.8400000000000001,4.2,-0.14,0
1786849315.7844787,R,-0.749568,0.316956,-0.565592,-3.1500000000000004,-1.8200000000000003,-1.1900000000000002,0
1786849315.787482,L,-0.7598159999999999,0.43798,0.499712,0.14,5.6000000000000005,1.1900000000000002,0
1786849315.7994962,R,-0.747372,0.31842,-0.572912,-1.1900000000000002,-2.3800000000000003,-1.2600000000000002,0
1786849315.8019989,L,-0.7610359999999999,0.433588,0.504348,0.21000000000000002,3.99,1.8900000000000001,0
1786849315.814685,R,-0.746152,0.320372,-0.5795,-1.1900000000000002,-2.1,-1.4000000000000001,0
1786849315.8178494,L,-0.755912,0.432124,0.50874,1.61,1.6800000000000002,1.6800000000000002,0
1786849315.829372,R,-0.745176,0.323544,-0.580476,-1.8200000000000003,-1.61,-0.9800000000000001,0
1786849315.832879,L,-0.76128,0.433344,0.509716,1.61,2.1700000000000004,1.1900000000000002,0
1786849315.8443968,R,-0.747128,0.325984,-0.584624,-3.08,-1.6800000000000002,-0.6300000000000001,0
1786849315.8474004,L,-0.766648,0.424804,0.512888,-0.8400000000000001,6.0200000000000005,0.77,0
1786849315.8594148,R,-0.740784,0.315248,-0.58682,-3.43,-1.61,-0.42000000000000004,0
1786849315.8619175,L,-0.769576,0.419436,0.5145959999999999,-3.22,7.420000000000001,-1.4700000000000002,0
1786849315.8744404,R,-0.737368,0.311832,-0.588284,-3.43,0.14,-0.56,0
1786849315.8774443,L,-0.766648,0.41968,0.5206959999999999,-3.7800000000000002,7.280000000000001,-4.550000000000001,0
1786849315.88946,R,-0.7381,0.321836,-0.5897479999999999,-3.5000000000000004,-1.1900000000000002,3.22,0
1786849315.8919628,L,-0.763964,0.43066,0.518744,-3.22,3.8500000000000005,-4.550000000000001,0
1786849315.9044852,R,-0.72712,0.31768799999999997,-0.58438,2.24,-2.0300000000000002,6.86,0
1786849315.9074886,L,-0.757132,0.438956,0.516792,-2.8000000000000003,2.31,-3.0100000000000002,0
1786849315.919541,R,-0.752984,0.31768799999999997,-0.590724,4.69,-3.5700000000000003,6.0200000000000005,0
1786849315.922043,L,-0.755912,0.4392,0.5206959999999999,-1.54,-0.7000000000000001,-1.9600000000000002,0
1786849315.9345672,R,-0.736636,0.31354,-0.588284,0.28,-2.87,3.0100000000000002,0
1786849315.9375713,L,-0.756888,0.441396,0.5182559999999999,-0.77,-4.62,0.28,0
1786849315.9495864,R,-0.732244,0.3538,-0.583892,2.87,-8.33,12.46,0
1786849315.952089,L,-0.769088,0.441396,0.504592,-1.2600000000000002,-3.99,2.8000000000000003,0
1786849315.964611,R,-0.731756,0.371368,-0.593896,6.0200000000000005,-5.670000000000001,29.750000000000004,0
1786849315.9676156,L,-0.767624,0.432612,0.502884,-2.31,-0.14,3.3600000000000003,0
1786849315.9796293,R,-0.717604,0.304268,-0.43846799999999997,21.42,-14.63,26.740000000000002,0
1786849315.982133,L,-0.76616,0.42797599999999997,0.506544,-2.5200000000000005,-2.0300000000000002,2.3800000000000003,0
1786849315.9946568,R,-0.7686,0.331596,-0.681248,11.270000000000001,-32.620000000000005,20.580000000000002,0
1786849315.9976614,L,-0.7625,0.42822,0.500932,-0.07,-5.95,2.24,0
1786849316.0098717,R,-0.728828,0.292068,-0.600728,0.21000000000000002,3.7100000000000004,17.85,0
1786849316.0118704,L,-0.763232,0.430904,0.49898,1.61,-7.7700000000000005,1.61,0
1786849316.0244498,R,-0.766404,0.283284,-0.585112,-1.2600000000000002,1.9600000000000002,8.540000000000001,0
1786849316.027454,L,-0.76128,0.435296,0.49654,1.12,-10.22,1.4700000000000002,0
1786849316.039467,R,-0.753472,0.28011199999999997,-0.57218,-1.7500000000000002,3.2900000000000005,-0.9100000000000001,0
1786849316.0419693,L,-0.759328,0.43676,0.490684,-0.56,-9.870000000000001,1.1900000000000002,0
1786849316.0544906,R,-0.76128,0.293288,-0.572668,-0.07,2.1700000000000004,-7.07,0
1786849316.0695078,R,-0.7537159999999999,0.310368,-0.56852,2.3800000000000003,-0.21000000000000002,-9.73,0
1786849316.0720122,L,-0.761524,0.44090799999999997,0.483608,-4.2700000000000005,-5.11,1.7500000000000002,0
1786849316.0845327,R,-0.7524959999999999,0.32208,-0.570716,3.0100000000000002,-2.1700000000000004,-9.73,0
1786849316.0885363,L,-0.7610359999999999,0.434564,0.491904,-3.99,-4.0600000000000005,2.31,0
1786849316.0895362,L,-0.762012,0.433344,0.49288,-0.77,-5.74,1.61,0
1786849316.0995479,R,-0.731024,0.329644,-0.569496,9.170000000000002,-2.45,-4.0600000000000005,0
1786849316.1020517,L,-0.764208,0.43188,0.49263599999999996,2.45,-8.610000000000001,0.9100000000000001,0
1786849316.1144066,R,-0.76128,0.327692,-0.571448,8.610000000000001,-0.35000000000000003,-4.340000000000001,0
1786849316.1294234,R,-0.74542,0.321104,-0.567056,-2.5200000000000005,2.1,-4.48,0
1786849316.1444533,R,-0.748836,0.3172,-0.5699839999999999,-4.83,4.2700000000000005,-3.7800000000000002,0
1786849316.1474571,L,-0.761524,0.432124,0.487024,3.5700000000000003,-8.96,-0.14,0
1786849316.148459,L,-0.759572,0.435784,0.49019599999999997,4.550000000000001,-10.430000000000001,-0.49000000000000005,0
1786849316.1604738,R,-0.750056,0.311344,-0.565348,-5.880000000000001,6.16,-3.8500000000000005,0
1786849316.1629817,L,-0.763232,0.446276,0.48922,3.2900000000000005,-9.38,-0.28,0
1786849316.166491,L,-0.7659159999999999,0.447252,0.48556,0.07,-6.0200000000000005,0.14,0
1786849316.174498,R,-0.755424,0.31842,-0.563152,-5.040000000000001,5.390000000000001,-2.45,0
1786849316.1775017,L,-0.762744,0.44652,0.485072,-0.56,-5.180000000000001,1.54,0
1786849316.1895187,R,-0.752252,0.315248,-0.56608,-0.07,0.77,-2.24,0
1786849316.1920273,L,-0.76128,0.44456799999999996,0.48434,1.54,-7.000000000000001,3.7100000000000004,0
1786849316.2045474,R,-0.750788,0.3172,-0.56364,3.22,-0.42000000000000004,-2.1,0
1786849316.2075503,L,-0.76494,0.441396,0.481656,4.340000000000001,-9.030000000000001,4.130000000000001,0
1786849316.2200382,R,-0.751032,0.324276,-0.566812,5.53,-1.8900000000000001,-1.9600000000000002,0
1786849316.2220392,L,-0.767624,0.435296,0.48068,4.0600000000000005,-10.010000000000002,3.9200000000000004,0
1786849316.2345948,R,-0.748348,0.32208,-0.566568,3.8500000000000005,-1.4000000000000001,-1.9600000000000002,0
1786849316.2375982,L,-0.769576,0.42944,0.472872,1.8200000000000003,-8.610000000000001,3.7800000000000002,0
1786849316.2496116,R,-0.753228,0.3233,-0.565348,1.6800000000000002,-0.07,-0.8400000000000001,0
1786849316.2521152,L,-0.772992,0.42578,0.469944,-0.35000000000000003,-7.490000000000001,3.08,0
1786849316.264637,R,-0.74542,0.331352,-0.560712,-1.9600000000000002,0.49000000000000005,1.9600000000000002,0
1786849316.2796526,R,-0.742736,0.335988,-0.569008,-6.090000000000001,3.7100000000000004,6.86,0
1786849316.2821565,L,-0.774456,0.41968,0.467504,-0.8400000000000001,-4.760000000000001,2.66,0
1786849316.2831616,L,-0.771284,0.41846,0.46238,0.42000000000000004,-4.550000000000001,0.49000000000000005,0
1786849316.2966824,R,-0.743224,0.33183999999999997,-0.5614439999999999,-5.880000000000001,1.6800000000000002,6.16,0
1786849316.2976823,L,-0.76738,0.427,0.458476,0.56,-3.3600000000000003,-0.14,0
1786849316.3102047,R,-0.736148,0.333792,-0.52948,-1.05,-5.670000000000001,7.700000000000001,0
1786849316.3122053,L,-0.766404,0.434076,0.460428,2.8000000000000003,-2.45,1.05,0
1786849316.324778,R,-0.75396,0.338428,-0.55266,1.12,-13.930000000000001,8.540000000000001,0
1786849316.3277826,L,-0.764452,0.433588,0.465308,5.8100000000000005,-4.550000000000001,2.0300000000000002,0
1786849316.3404195,R,-0.734196,0.32939999999999997,-0.581208,2.66,-14.21,10.71,0
1786849316.3419235,L,-0.766892,0.43968799999999997,0.464576,6.930000000000001,-5.74,0.8400000000000001,0
1786849316.3544514,R,-0.735416,0.347944,-0.559248,0.28,-12.040000000000001,16.240000000000002,0
1786849316.3574562,L,-0.762012,0.440664,0.461404,5.8100000000000005,-6.580000000000001,0.77,0
1786849316.3694718,R,-0.75274,0.328668,-0.577548,6.86,-14.700000000000001,16.17,0
1786849316.3719752,L,-0.77104,0.438712,0.453352,3.5700000000000003,-3.7800000000000002,1.6800000000000002,0
1786849316.3844993,R,-0.7564,0.318176,-0.596092,0.56,-4.2700000000000005,10.920000000000002,0
1786849316.3875036,L,-0.770552,0.428708,0.456524,0.42000000000000004,1.8900000000000001,1.4000000000000001,0
1786849316.3995235,R,-0.760548,0.323544,-0.572668,2.1,2.24,8.4,0
1786849316.402026,L,-0.769088,0.4209,0.475068,1.2600000000000002,2.7300000000000004,-1.33,0
1786849316.4146652,R,-0.768844,0.315492,-0.547536,1.7500000000000002,1.7500000000000002,6.370000000000001,0
1786849316.417674,L,-0.762744,0.42553599999999997,0.48068,5.180000000000001,0.21000000000000002,-4.48,0
1786849316.4296896,R,-0.7634759999999999,0.29670399999999997,-0.540216,1.33,-8.33,3.1500000000000004,0
1786849316.4444182,R,-0.756888,0.30256,-0.56608,-1.61,-8.47,-1.9600000000000002,0
1786849316.4474225,L,-0.758352,0.441884,0.47336,10.010000000000002,0.21000000000000002,-3.7800000000000002,0
1786849316.4484224,L,-0.749324,0.459696,0.471652,10.920000000000002,1.4700000000000002,-2.8000000000000003,0
1786849316.4594407,R,-0.7561559999999999,0.31964,-0.559736,-1.4700000000000002,-6.0200000000000005,-4.41,0
1786849316.4619439,L,-0.75152,0.453596,0.4697,10.080000000000002,2.1,-2.24,0
1786849316.474473,R,-0.750056,0.33061999999999997,-0.574864,-2.1,-4.48,-4.0600000000000005,0
1786849316.477477,L,-0.750544,0.456036,0.46921199999999996,8.120000000000001,3.5000000000000004,-1.8900000000000001,0
1786849316.4894924,R,-0.752252,0.342576,-0.569496,-0.6300000000000001,-0.8400000000000001,-2.87,0
1786849316.4919946,L,-0.749324,0.452132,0.47458,6.44,4.69,-1.9600000000000002,0
1786849316.5045178,R,-0.759084,0.336476,-0.559248,3.2900000000000005,-1.05,-1.33,0
1786849316.5075223,L,-0.754448,0.448472,0.478728,6.23,3.9200000000000004,-3.22,0
1786849316.5346658,R,-0.7671359999999999,0.333792,-0.568032,4.2,-1.6800000000000002,-1.4000000000000001,0
1786849316.53667,R,-0.761768,0.32939999999999997,-0.5675439999999999,5.11,0.6300000000000001,-0.42000000000000004,0
1786849316.5376694,L,-0.756888,0.452864,0.486048,6.16,2.66,-4.9,0
1786849316.53867,L,-0.759572,0.454572,0.492148,6.580000000000001,3.22,-5.74,0
1786849316.5500145,R,-0.7634759999999999,0.320372,-0.56974,7.3500000000000005,-0.35000000000000003,-0.9100000000000001,0
1786849316.5520134,L,-0.753228,0.452376,0.49898,8.680000000000001,2.87,-6.370000000000001,0
1786849316.564578,R,-0.765672,0.313052,-0.561688,10.500000000000002,-2.1,-1.7500000000000002,0
1786849316.5675817,L,-0.750056,0.449692,0.502152,8.75,5.11,-7.420000000000001,0
1786849316.5795975,R,-0.769088,0.310124,-0.571692,12.110000000000001,-5.32,-3.43,0
1786849316.5820978,L,-0.739564,0.445544,0.515572,7.700000000000001,6.0200000000000005,-8.82,0
1786849316.594621,R,-0.759084,0.326716,-0.5712039999999999,10.99,-1.8200000000000003,-1.8900000000000001,0
1786849316.597626,L,-0.7351719999999999,0.4453,0.526064,7.910000000000001,2.66,-10.500000000000002,0
1786849316.6101806,R,-0.762744,0.343064,-0.55876,10.430000000000001,-1.2600000000000002,0.7000000000000001,0
1786849316.6126869,L,-0.730536,0.441884,0.520208,9.100000000000001,-2.1700000000000004,-11.06,0
1786849316.6244202,R,-0.7686,0.34648,-0.5551,9.170000000000002,-4.0600000000000005,2.45,0
1786849316.627424,L,-0.731024,0.436516,0.49946799999999997,11.270000000000001,-4.130000000000001,-11.55,0
1786849316.639445,R,-0.772504,0.349164,-0.567788,6.86,-2.8000000000000003,3.08,0
1786849316.6419477,L,-0.727364,0.427,0.489952,14.070000000000002,-3.7100000000000004,-12.740000000000002,0
1786849316.6544697,R,-0.782264,0.362584,-0.571448,6.580000000000001,-0.49000000000000005,4.41,0
1786849316.6574733,L,-0.721752,0.414312,0.486292,17.85,-5.250000000000001,-14.490000000000002,0
1786849316.6694884,R,-0.793976,0.372588,-0.565836,6.86,1.7500000000000002,6.23,0
1786849316.6719885,L,-0.714676,0.402356,0.4819,21.770000000000003,-6.300000000000001,-16.87,0
1786849316.684513,R,-0.800808,0.378444,-0.563152,10.360000000000001,0.9100000000000001,7.910000000000001,0
1786849316.6875184,L,-0.710772,0.392596,0.4758,25.200000000000003,-6.16,-20.3,0
1786849316.699534,R,-0.797392,0.377956,-0.5626639999999999,13.020000000000001,2.7300000000000004,8.33,0
1786849316.7020357,L,-0.704916,0.38186,0.477752,29.540000000000003,-5.32,-22.96,0
1786849316.7144816,R,-0.788852,0.382104,-0.559248,15.890000000000002,5.390000000000001,7.7700000000000005,0
1786849316.7175333,L,-0.7015,0.3843,0.485072,33.95,-6.16,-27.020000000000003,0
1786849316.7320518,L,-0.709796,0.392108,0.491172,39.830000000000005,-9.030000000000001,-30.17,0
1786849316.7445748,R,-0.783972,0.400404,-0.55754,13.72,8.260000000000002,7.910000000000001,0
1786849316.7465785,R,-0.775188,0.421144,-0.553392,11.690000000000001,11.690000000000001,8.610000000000001,0
1786849316.7475789,L,-0.72712,0.417728,0.47482399999999997,43.400000000000006,-9.450000000000001,-30.800000000000004,0
1786849316.7595918,R,-0.775432,0.44042,-0.5367999999999999,13.510000000000002,14.280000000000001,11.760000000000002,0
1786849316.7626977,L,-0.748104,0.42944,0.499712,52.78000000000001,-8.260000000000002,-35.56,0
1786849316.7743826,R,-0.785192,0.45017999999999997,-0.525576,18.76,13.790000000000001,17.71,0
1786849316.7773862,L,-0.76128,0.449692,0.509472,54.60000000000001,-2.45,-38.92,0
1786849316.7894006,R,-0.790316,0.448716,-0.51118,27.720000000000002,10.080000000000002,24.570000000000004,0
1786849316.791905,L,-0.776896,0.468968,0.55388,54.74,2.5200000000000005,-39.2,0
1786849316.8050468,R,-0.783972,0.43554,-0.495564,37.52,4.340000000000001,30.800000000000004,0
1786849316.807051,L,-0.774456,0.47824,0.59658,51.24,4.69,-37.24,0
1786849316.819704,R,-0.77348,0.415532,-0.48434,45.99,0.7000000000000001,34.230000000000004,0
1786849316.8227937,L,-0.780556,0.47458,0.630008,50.82000000000001,5.53,-33.74,0
1786849316.8344152,R,-0.75518,0.400648,-0.476532,49.910000000000004,-1.61,35.49,0
1786849316.8374188,L,-0.7759199999999999,0.47092,0.662704,57.260000000000005,1.4700000000000002,-31.710000000000004,0
1786849316.849432,R,-0.734684,0.395036,-0.469456,48.580000000000005,-1.6800000000000002,34.720000000000006,0
1786849316.851937,L,-0.7795799999999999,0.457256,0.689788,70.35000000000001,-8.96,-32.27,0
1786849316.8644602,R,-0.713212,0.40382,-0.462868,45.57000000000001,-1.2600000000000002,33.25,0
1786849316.8674643,L,-0.773968,0.452132,0.70028,80.01,-21.35,-33.53,0
1786849316.879478,R,-0.70028,0.426268,-0.4453,44.870000000000005,-4.760000000000001,34.790000000000006,0
1786849316.8819823,L,-0.767624,0.454084,0.698816,80.85000000000001,-29.680000000000003,-32.970000000000006,0
1786849316.8945024,R,-0.687592,0.42944,-0.43968799999999997,44.45,-8.680000000000001,40.25000000000001,0
1786849316.8975067,L,-0.760304,0.454816,0.69906,73.43,-31.150000000000002,-31.220000000000002,0
1786849316.910184,R,-0.678808,0.42334,-0.432856,45.010000000000005,-11.760000000000002,45.92,0
1786849316.9126925,L,-0.744932,0.454084,0.704184,63.49000000000001,-33.46,-29.19,0
1786849316.924839,R,-0.681736,0.409188,-0.427,48.86000000000001,-19.880000000000003,51.940000000000005,0
1786849316.927287,L,-0.7315119999999999,0.450424,0.70516,56.00000000000001,-39.620000000000005,-25.480000000000004,0
1786849316.9399538,R,-0.685152,0.380396,-0.424804,53.480000000000004,-31.92,55.720000000000006,0
1786849316.9419563,L,-0.72468,0.44164,0.701012,51.730000000000004,-46.34,-21.560000000000002,0
1786849316.955942,R,-0.68808,0.360632,-0.45627999999999996,50.540000000000006,-35.77,56.14000000000001,0
1786849316.9579415,L,-0.725656,0.41846,0.68808,49.980000000000004,-53.34,-18.48,0
1786849316.9694896,R,-0.692228,0.35014,-0.467748,43.82000000000001,-35.56,53.760000000000005,0
1786849316.9725304,L,-0.734196,0.38356799999999996,0.6822239999999999,48.86000000000001,-61.60000000000001,-17.78,0
1786849316.9847715,R,-0.694912,0.35404399999999997,-0.482144,38.43000000000001,-37.1,53.06,0
1786849316.9872756,L,-0.75152,0.349164,0.665144,49.910000000000004,-70.07000000000001,-22.05,0
1786849316.9998055,R,-0.706624,0.360388,-0.49263599999999996,38.50000000000001,-41.230000000000004,53.480000000000004,0
1786849317.001805,L,-0.755424,0.342576,0.631228,49.980000000000004,-74.48,-25.410000000000004,0
1786849317.0145802,R,-0.7198,0.360144,-0.508984,40.95,-45.71,55.300000000000004,0
1786849317.0177026,L,-0.76128,0.34355199999999997,0.602192,48.440000000000005,-74.76,-24.360000000000003,0
1786849317.0297854,R,-0.726632,0.356972,-0.528992,42.910000000000004,-49.28,55.370000000000005,0
1786849317.032827,L,-0.76616,0.333792,0.577304,48.440000000000005,-73.71000000000001,-23.03,0
1786849317.044392,R,-0.728584,0.361364,-0.554612,42.7,-50.96000000000001,54.18000000000001,0
1786849317.0473962,L,-0.77348,0.33061999999999997,0.569252,49.910000000000004,-71.54,-22.19,0
1786849317.0594099,R,-0.7290719999999999,0.367708,-0.584136,44.59,-52.36000000000001,52.150000000000006,0
1786849317.062444,L,-0.768844,0.308172,0.5856,54.74,-69.02000000000001,-21.21,0
1786849317.0777013,L,-0.766404,0.279868,0.60146,62.510000000000005,-72.52000000000001,-24.85,0
1786849317.0894117,R,-0.724436,0.374296,-0.6107319999999999,47.74,-51.800000000000004,51.17,0
1786849317.091411,R,-0.716872,0.380152,-0.635132,51.870000000000005,-48.580000000000005,50.75000000000001,0
1786849317.092539,L,-0.763232,0.25742,0.61488,73.29,-78.19000000000001,-31.150000000000002,0
1786849317.104368,R,-0.704672,0.387472,-0.65514,55.370000000000005,-44.59,51.940000000000005,0
1786849317.1073716,L,-0.7671359999999999,0.264496,0.609268,81.9,-82.95,-37.38,0
1786849317.1198857,R,-0.692228,0.39772,-0.668316,58.59,-37.31,52.99,0
1786849317.1223924,L,-0.760548,0.27694,0.6039,83.09,-82.95,-40.6,0
1786849317.1345377,R,-0.687348,0.40504,-0.668316,62.790000000000006,-30.17,54.11000000000001,0
1786849317.1378236,L,-0.750544,0.28621199999999997,0.587796,78.26,-76.65,-41.09,0
1786849317.15287,L,-0.739564,0.288896,0.5856,73.57000000000001,-72.66000000000001,-41.02,0
1786849317.1644273,R,-0.682956,0.4087,-0.657336,69.23,-26.6,54.81,0
1786849317.1665442,R,-0.674416,0.410164,-0.654408,77.7,-24.01,56.56,0
1786849317.1675403,L,-0.732976,0.292312,0.591944,70.77000000000001,-68.25,-41.790000000000006,0
1786849317.1796727,R,-0.671,0.410896,-0.649772,84.42,-17.5,56.63,0
1786849317.1816723,L,-0.732244,0.2928,0.639768,77.56,-66.57000000000001,-45.150000000000006,0
1786849317.1946726,R,-0.675148,0.42212,-0.622688,88.69000000000001,-9.8,57.96000000000001,0
1786849317.1976874,L,-0.7424919999999999,0.3111,0.670756,91.7,-75.04,-51.03000000000001,0
1786849317.2102618,R,-0.69662,0.426512,-0.607804,91.98,-6.720000000000001,60.620000000000005,0
1786849317.2127686,L,-0.755912,0.338428,0.678076,104.93,-81.06,-53.34,0
1786849317.2248533,R,-0.695156,0.424072,-0.5958479999999999,98.91000000000001,-8.05,64.4,0
1786849317.2278574,L,-0.7564,0.364292,0.679296,113.33000000000001,-84.77000000000001,-53.970000000000006,0
1786849317.2394423,R,-0.67832,0.398452,-0.590236,101.71000000000001,-7.000000000000001,64.89,0
1786849317.242499,L,-0.742736,0.381372,0.6832,118.51,-85.05000000000001,-55.440000000000005,0
1786849317.2547603,R,-0.6426959999999999,0.3721,-0.581696,101.99000000000001,-1.2600000000000002,63.28000000000001,0
1786849317.2578826,L,-0.709064,0.39283999999999997,0.687592,120.19000000000001,-81.41000000000001,-55.300000000000004,0
1786849317.2695434,R,-0.619516,0.3477,-0.557052,103.25000000000001,4.340000000000001,61.18000000000001,0
1786849317.284697,R,-0.6365959999999999,0.343064,-0.511424,105.84,7.98,61.74000000000001,0
1786849317.2877011,L,-0.68808,0.412848,0.705404,122.71000000000001,-83.65,-53.480000000000004,0
1786849317.2887013,L,-0.70394,0.454572,0.752252,130.41000000000003,-87.36000000000001,-50.330000000000005,0
1786849317.2998884,R,-0.69906,0.349408,-0.477752,108.92000000000002,6.090000000000001,64.12,0
1786849317.3023968,L,-0.7424919999999999,0.48409599999999997,0.802272,142.52,-94.29,-47.81,0
1786849317.3148155,R,-0.7807999999999999,0.376004,-0.459208,106.47000000000001,3.99,63.77,0
1786849317.3169782,L,-0.778604,0.498492,0.82838,151.20000000000002,-102.48,-47.25000000000001,0
1786849317.3295438,R,-0.8418,0.399916,-0.446032,98.00000000000001,1.54,62.370000000000005,0
1786849317.3327384,L,-0.8054439999999999,0.48897599999999997,0.824232,153.93,-107.45000000000002,-46.690000000000005,0
1786849317.3444083,R,-0.842776,0.407724,-0.452132,87.08000000000001,-3.5000000000000004,63.28000000000001,0
1786849317.3474128,L,-0.779336,0.476532,0.7993439999999999,151.76000000000002,-109.97000000000001,-50.68000000000001,0
1786849317.3627374,L,-0.740784,0.46116,0.790316,152.18,-113.68,-53.13,0
1786849317.3744233,R,-0.820328,0.391132,-0.479216,82.32000000000001,-6.44,68.81,0
1786849317.376546,R,-0.820816,0.35770399999999997,-0.482388,88.27000000000001,-10.290000000000001,78.96000000000001,0
1786849317.3775458,L,-0.7076,0.422364,0.8252079999999999,168.14000000000001,-118.44000000000001,-60.34,0
1786849317.3898885,R,-0.846924,0.317932,-0.4819,101.71000000000001,-15.890000000000002,86.17,0
1786849317.3924022,L,-0.682712,0.388936,0.823256,196.63000000000002,-134.54000000000002,-69.65,0
1786849317.4045415,R,-0.87474,0.29524,-0.462624,115.92000000000002,-23.240000000000002,90.37,0
1786849317.407861,L,-0.668804,0.40211199999999997,0.798856,228.76000000000002,-164.92000000000002,-80.92,0
1786849317.4193895,R,-0.903288,0.290116,-0.441884,116.97000000000001,-24.71,90.93,0
1786849317.4224577,L,-0.692716,0.40699199999999996,0.76738,251.79000000000002,-186.69000000000003,-87.78000000000002,0
1786849317.4347935,R,-0.927688,0.301584,-0.42578,101.01,-24.360000000000003,89.74000000000001,0
1786849317.4369276,L,-0.737856,0.393572,0.744444,266.14000000000004,-204.19000000000003,-94.85000000000001,0
1786849317.4495482,R,-0.9472079999999999,0.312076,-0.500932,62.02,-25.200000000000003,87.29,0
1786849317.4526794,L,-0.757864,0.398208,0.709552,271.32000000000005,-219.03000000000003,-105.63000000000001,0
1786849317.4647825,R,-0.929152,0.298412,-0.61366,15.47,-16.73,84.28,0
1786849317.4670265,L,-0.759328,0.411628,0.674416,267.89000000000004,-224.84000000000003,-110.18,0
1786849317.4797568,R,-0.909388,0.274744,-0.673196,-12.32,-3.9200000000000004,82.95,0
1786849317.4828942,L,-0.7424919999999999,0.443836,0.653432,263.69,-230.93000000000004,-114.45000000000002,0
1786849317.49441,R,-0.8854759999999999,0.259616,-0.688568,-2.66,-5.670000000000001,85.33000000000001,0
1786849317.4974134,L,-0.714432,0.486048,0.613904,255.36,-238.07000000000002,-113.89000000000001,0
1786849317.5094924,R,-0.86132,0.245952,-0.6685599999999999,36.400000000000006,-15.96,91.49000000000001,0
1786849317.5125842,L,-0.684176,0.541436,0.599508,244.72000000000003,-237.65000000000003,-107.80000000000001,0
1786849317.524682,R,-0.8374079999999999,0.226432,-0.626592,84.63000000000001,-28.210000000000004,98.28000000000002,0
1786849317.5278242,L,-0.628056,0.592676,0.564372,225.19000000000003,-235.76000000000002,-94.64000000000001,0
1786849317.5393722,R,-0.8164239999999999,0.20813199999999998,-0.58316,122.29,-39.830000000000005,100.87,0
1786849317.5428777,L,-0.580964,0.617564,0.515328,193.69000000000003,-219.52,-70.7,0
1786849317.5544276,R,-0.809836,0.20252,-0.580476,131.74,-51.940000000000005,99.75000000000001,0
1786849317.5575454,L,-0.548512,0.641232,0.49532,153.44000000000003,-199.50000000000003,-48.160000000000004,0
1786849317.5697467,R,-0.787144,0.19763999999999998,-0.6095119999999999,114.52000000000001,-57.470000000000006,97.30000000000001,0
1786849317.572817,L,-0.5002,0.631472,0.5416799999999999,111.02000000000001,-182.91000000000003,-27.300000000000004,0
1786849317.5844986,R,-0.758352,0.17812,-0.648064,81.13000000000001,-53.34,93.59,0
1786849317.5875018,L,-0.49532,0.623176,0.556076,65.80000000000001,-162.26000000000002,-7.140000000000001,0
1786849317.5995176,R,-0.734684,0.16104,-0.670024,49.21000000000001,-47.040000000000006,88.41000000000001,0
1786849317.602543,L,-0.503616,0.573156,0.599996,30.240000000000002,-147.91000000000003,10.080000000000002,0
1786849317.614728,R,-0.718824,0.15128,-0.68564,34.790000000000006,-48.160000000000004,86.24000000000001,0
1786849317.6177313,L,-0.500688,0.5551,0.61488,21.630000000000003,-142.8,19.950000000000003,0
1786849317.6294007,R,-0.7129679999999999,0.14884,-0.711016,33.53,-52.92,84.91000000000001,0
1786849317.632545,L,-0.49288,0.563152,0.632448,36.400000000000006,-147.35000000000002,14.280000000000001,0
1786849317.6446326,R,-0.709796,0.15494,-0.733464,38.220000000000006,-55.160000000000004,84.7,0
1786849317.6476364,L,-0.521184,0.523624,0.611708,44.1,-148.47000000000003,17.290000000000003,0
1786849317.6594803,R,-0.697108,0.14274,-0.79666,42.63,-56.84,84.77000000000001,0
1786849317.674391,R,-0.387228,0.177388,-1.76412,49.42,-168.56,120.12,0
1786849317.6773953,L,-0.51118,0.539728,0.6082919999999999,46.13,-157.50000000000003,18.55,0
1786849317.6783948,L,-0.504104,0.59292,0.56486,42.14,-143.57000000000002,21.700000000000003,0
1786849317.690051,R,-0.6932039999999999,0.187392,-1.44082,233.03000000000003,-59.080000000000005,129.22,0
1786849317.6925573,L,-0.47116399999999997,0.571936,0.5651039999999999,32.410000000000004,-136.43,29.610000000000003,0
1786849317.704491,R,-0.72956,0.02196,-1.138504,238.84000000000003,30.17,92.05000000000001,0
1786849317.7074974,L,-0.449936,0.5638839999999999,0.575596,32.550000000000004,-138.67000000000002,29.19,0
1786849317.7195635,R,-0.7141879999999999,0.1098,-0.885232,169.61,13.72,77.28,0
1786849317.7228925,L,-0.429684,0.5453399999999999,0.560468,24.71,-138.32000000000002,34.790000000000006,0
1786849317.73505,R,-0.747616,0.200568,-0.725412,85.75000000000001,18.200000000000003,57.540000000000006,0
1786849317.737052,L,-0.454572,0.5206959999999999,0.538996,10.57,-133.07000000000002,38.99,0
1786849317.7496164,R,-0.707844,0.247172,-0.610488,-1.6800000000000002,57.470000000000006,46.2,0
1786849317.7526839,L,-0.42431599999999997,0.499712,0.515084,-5.32,-123.83000000000001,35.49,0
1786849317.7644813,R,-0.711504,0.275476,-0.499224,-70.91000000000001,68.04,44.1,0
1786849317.7674854,L,-0.42944,0.502884,0.5170359999999999,-20.23,-115.78000000000002,29.680000000000003,0
1786849317.7797022,R,-0.659044,0.30963599999999997,-0.48312,-83.37,41.510000000000005,60.410000000000004,0
1786849317.7822063,L,-0.409676,0.523868,0.52338,-35.7,-103.67000000000002,24.01,0
1786849317.7947958,R,-0.657824,0.30134,-0.495076,-38.71,11.06,76.02000000000001,0
1786849317.796921,L,-0.395768,0.53558,0.5246,-55.790000000000006,-87.57000000000001,21.630000000000003,0
1786849317.809509,R,-0.666364,0.277916,-0.488488,0.14,-4.970000000000001,80.99000000000001,0
1786849317.812616,L,-0.392596,0.547292,0.53314,-68.32000000000001,-73.92,17.5,0
1786849317.824852,R,-0.6624599999999999,0.277184,-0.442372,23.87,-14.910000000000002,74.48,0
1786849317.8269603,L,-0.380884,0.546072,0.532164,-75.18,-66.01,13.23,0
1786849317.8395514,R,-0.649284,0.294996,-0.415776,26.110000000000003,-23.520000000000003,64.47000000000001,0
1786849317.842057,L,-0.377712,0.533872,0.511668,-74.2,-60.620000000000005,5.6000000000000005,0
1786849317.8547642,R,-0.630984,0.31354,-0.40333199999999997,19.110000000000003,-28.210000000000004,54.81,0
1786849317.8569927,L,-0.371124,0.525576,0.4819,-68.11,-53.760000000000005,-6.510000000000001,0
1786849317.8695457,R,-0.612196,0.337452,-0.40577199999999997,7.700000000000001,-31.080000000000002,49.21000000000001,0
1786849317.8727393,L,-0.365512,0.53314,0.45505999999999996,-63.980000000000004,-43.68000000000001,-17.85,0
1786849317.886982,L,-0.356972,0.546804,0.435784,-61.81000000000001,-31.92,-24.64,0
1786849317.900001,R,-0.59414,0.338916,-0.543144,-2.5900000000000003,-47.46000000000001,49.07000000000001,0
1786849317.9015043,R,-0.51606,0.441884,-0.804712,55.160000000000004,-110.39000000000001,42.00000000000001,0
1786849317.9025085,L,-0.34477199999999997,0.58072,0.420656,-66.99000000000001,-16.380000000000003,-28.490000000000002,0
1786849317.9147778,R,-0.53192,0.406016,-0.88084,107.31000000000002,-80.99000000000001,52.150000000000006,0
1786849317.9179688,L,-0.355752,0.5614439999999999,0.391864,-70.84,-4.550000000000001,-24.500000000000004,0
1786849317.929547,R,-0.49898,0.34355199999999997,-0.9359839999999999,103.81000000000002,-59.36000000000001,60.830000000000005,0
1786849317.9326832,L,-0.358436,0.551928,0.372832,-80.29,14.63,-21.28,0
1786849317.9444563,R,-0.511912,0.327692,-0.877668,80.29,-32.550000000000004,60.2,0
1786849317.94755,L,-0.388936,0.537776,0.353556,-81.2,34.230000000000004,-29.960000000000004,0
1786849317.959688,R,-0.532408,0.261324,-0.874984,57.75000000000001,-15.47,54.74,0
1786849317.9616888,L,-0.42212,0.520208,0.334036,-66.57000000000001,42.49,-42.14,0
1786849317.9745917,R,-0.512888,0.219356,-0.813252,66.92,-2.24,43.190000000000005,0
1786849317.9778018,L,-0.429928,0.530944,0.310368,-41.650000000000006,48.580000000000005,-56.63,0
1786849317.9928558,L,-0.46311199999999997,0.5465599999999999,0.290848,-13.580000000000002,52.50000000000001,-67.9,0
1786849318.0044305,R,-0.521428,0.228384,-0.765672,58.24000000000001,2.0300000000000002,31.640000000000004,0
1786849318.0064347,R,-0.537044,0.269376,-0.709552,44.52,-5.95,25.55,0
1786849318.0074348,L,-0.495076,0.57218,0.28182,16.240000000000002,53.2,-76.44000000000001,0
1786849318.019788,R,-0.545828,0.30378,-0.726388,40.32000000000001,-17.430000000000003,24.080000000000002,0
1786849318.0228865,L,-0.52094,0.598532,0.29524,42.28,55.440000000000005,-84.28,0
1786849318.0345495,R,-0.563152,0.350384,-0.728096,36.540000000000006,-19.180000000000003,24.220000000000002,0
1786849318.037838,L,-0.551928,0.64782,0.32012799999999997,63.56000000000001,59.92000000000001,-84.63000000000001,0
1786849318.0498538,R,-0.581208,0.38064,-0.7141879999999999,33.39,-20.090000000000003,27.930000000000003,0
1786849318.0518548,L,-0.602192,0.68564,0.346968,79.80000000000001,59.92000000000001,-78.54,0
1786849318.0647843,R,-0.58926,0.37868799999999997,-0.706624,30.03,-23.87,32.620000000000005,0
1786849318.067173,L,-0.58316,0.728828,0.384788,92.68,50.260000000000005,-71.82000000000001,0
1786849318.0797482,R,-0.588772,0.36234,-0.705892,27.650000000000002,-25.270000000000003,37.1,0
1786849318.082796,L,-0.624152,0.7549359999999999,0.38552,101.57000000000001,39.480000000000004,-82.46000000000001,0
1786849318.0944147,R,-0.595116,0.35014,-0.702232,27.720000000000002,-25.270000000000003,38.010000000000005,0
1786849318.097418,L,-0.646844,0.743468,0.398452,102.13000000000001,42.07000000000001,-89.32000000000001,0
1786849318.1096268,R,-0.60634,0.335256,-0.700036,28.840000000000003,-28.35,38.36000000000001,0
1786849318.1126816,L,-0.678808,0.734196,0.42919599999999997,97.86000000000001,57.050000000000004,-89.53000000000002,0
1786849318.1248164,R,-0.614636,0.346236,-0.682712,33.67,-33.18,40.46,0
1786849318.126959,L,-0.697108,0.756888,0.458964,87.15,72.45,-91.91000000000001,0
1786849318.1395557,R,-0.621224,0.355752,-0.6673399999999999,36.540000000000006,-37.17,43.050000000000004,0
1786849318.1426537,L,-0.7198,0.783972,0.510448,79.73,80.78,-94.08000000000001,0
1786849318.1548088,R,-0.621956,0.365268,-0.653188,37.03,-41.650000000000006,47.18000000000001,0
1786849318.1578133,L,-0.7056479999999999,0.789828,0.5477799999999999,81.48,82.53,-94.01,0
1786849318.1696546,R,-0.629764,0.345504,-0.652212,33.74,-49.56,49.42,0
1786849318.1726897,L,-0.693448,0.793976,0.554856,75.39,82.81,-92.33000000000001,0
1786849318.1847994,R,-0.6082919999999999,0.328912,-0.663192,29.540000000000003,-59.64000000000001,48.93000000000001,0
1786849318.1878493,L,-0.67466,0.793244,0.570716,66.99000000000001,80.64000000000001,-87.92,0
1786849318.1998198,R,-0.606584,0.329156,-0.674416,19.32,-65.45,45.78,0
1786849318.202851,L,-0.652456,0.784704,0.593652,57.330000000000005,77.14,-82.11000000000001,0
1786849318.2144365,R,-0.601704,0.345504,-0.6907639999999999,5.040000000000001,-67.2,41.790000000000006,0
1786849318.2174406,L,-0.644648,0.7820199999999999,0.606096,39.2,75.46000000000001,-75.60000000000001,0
1786849318.2315857,R,-0.60878,0.375028,-0.6832,-5.040000000000001,-65.03,39.900000000000006,0
1786849318.232657,L,-0.6587999999999999,0.798612,0.6143919999999999,17.150000000000002,78.54,-64.89,0
1786849318.244601,R,-0.625372,0.406016,-0.6466,-10.290000000000001,-69.86000000000001,38.85,0
1786849318.2476084,L,-0.65514,0.807152,0.598288,-2.8000000000000003,87.01,-54.25000000000001,0
1786849318.259847,R,-0.6283,0.418948,-0.604876,-17.150000000000002,-80.99000000000001,37.730000000000004,0
1786849318.2628763,L,-0.681492,0.817156,0.593164,-13.3,86.45,-46.900000000000006,0
1786849318.274396,R,-0.632204,0.428708,-0.616344,-0.77,-98.00000000000001,40.11000000000001,0
1786849318.2773995,L,-0.764452,0.8781559999999999,0.608048,-17.990000000000002,76.65,-34.230000000000004,0
1786849318.2897656,R,-0.660508,0.427732,-0.623908,17.430000000000003,-112.21000000000001,50.190000000000005,0
1786849318.2928,L,-0.829844,0.93818,0.618296,-22.89,64.75,-18.060000000000002,0
1786849318.3043725,R,-0.704184,0.4636,-0.652944,34.790000000000006,-130.34,57.68000000000001,0
1786849318.307482,L,-0.8769359999999999,0.98454,0.628788,-25.900000000000002,66.29,-5.74,0
1786849318.319865,R,-0.70028,0.36966,-0.780556,81.2,-161.00000000000003,71.68,0
1786849318.3218648,L,-0.865712,1.018212,0.667828,-33.46,78.96000000000001,3.08,0
1786849318.3345542,R,-0.655872,0.317932,-0.798368,106.54,-168.14000000000001,63.910000000000004,0
1786849318.3375926,L,-0.788608,0.99552,0.733464,-42.28,99.05000000000001,10.920000000000002,0
1786849318.3497043,R,-0.6832,0.32696,-0.88938,105.21000000000001,-168.63000000000002,49.63,0
1786849318.3527384,L,-0.666608,0.902556,0.782508,-59.99000000000001,109.62,24.990000000000002,0
1786849318.3646069,R,-0.609024,0.335256,-0.955992,81.2,-166.53000000000003,26.390000000000004,0
1786849318.367611,L,-0.566812,0.808128,0.82106,-82.25000000000001,109.20000000000002,49.28,0
1786849318.381782,R,-0.5477799999999999,0.38186,-1.067988,49.56,-145.04000000000002,8.190000000000001,0
1786849318.3828886,L,-0.460428,0.730048,0.865712,-103.32000000000001,101.78000000000002,71.19000000000001,0
1786849318.3976905,L,-0.394548,0.638548,0.8486319999999999,-123.9,81.69000000000001,84.14000000000001,0
1786849318.4127944,L,-0.41870399999999997,0.58682,0.761524,-130.06,58.45,85.19000000000001,0
1786849318.424566,R,-0.489708,0.40699199999999996,-1.14436,8.680000000000001,-99.33000000000001,-3.5000000000000004,0
1786849318.426571,R,-0.4453,0.443104,-1.152412,-43.75000000000001,-40.040000000000006,-17.430000000000003,0
1786849318.4275723,L,-0.45627999999999996,0.538996,0.686616,-126.91000000000001,42.35,77.28,0
1786849318.4400039,R,-0.432612,0.486292,-1.112396,-95.76,11.270000000000001,-31.780000000000005,0
1786849318.4415073,R,-0.44042,0.536312,-1.054812,-135.17000000000002,53.13,-42.7,0
1786849318.4425118,L,-0.49702799999999997,0.545828,0.655384,-112.98,25.830000000000002,66.99000000000001,0
1786849318.4574137,L,-0.552416,0.570472,0.64904,-94.29,5.670000000000001,57.89000000000001,0
1786849318.4695592,R,-0.45994,0.596092,-1.000644,-151.20000000000002,83.37,-43.470000000000006,0
1786849318.4715605,R,-0.530944,0.623176,-0.95526,-153.58,106.05000000000001,-31.360000000000003,0
1786849318.4726417,L,-0.575596,0.62464,0.69662,-72.87,-14.910000000000002,56.77,0
1786849318.4848392,R,-0.544852,0.726876,-0.866688,-124.32000000000001,105.70000000000002,-15.260000000000002,0
1786849318.4869683,L,-0.612196,0.650748,0.7141879999999999,-55.790000000000006,-31.080000000000002,56.35000000000001,0
1786849318.4997842,R,-0.584624,0.714432,-0.870592,-88.2,87.15,-3.3600000000000003,0
1786849318.5028358,L,-0.6402559999999999,0.6771,0.742736,-43.82000000000001,-43.82000000000001,58.800000000000004,0
1786849318.5148528,R,-0.632448,0.664168,-0.805932,-52.85000000000001,82.53,17.5,0
1786849318.5189278,L,-0.615124,0.70638,0.769088,-42.07000000000001,-51.800000000000004,64.33000000000001,0
1786849318.5295002,R,-0.664656,0.605608,-0.81862,-25.69,83.93,38.71,0
1786849318.532008,L,-0.58926,0.723216,0.7893399999999999,-55.580000000000005,-47.18000000000001,69.44000000000001,0
1786849318.5445535,R,-0.678808,0.529968,-0.85034,-7.98,85.19000000000001,50.050000000000004,0
1786849318.5476928,L,-0.572912,0.7190679999999999,0.784704,-79.52000000000001,-34.160000000000004,73.57000000000001,0
1786849318.559709,R,-0.673196,0.482388,-0.878888,-5.040000000000001,102.2,47.39000000000001,0
1786849318.5617094,L,-0.560468,0.6919839999999999,0.83326,-103.95,-14.840000000000002,76.23,0
1786849318.5778677,L,-0.513132,0.67344,0.963556,-129.64000000000001,24.990000000000002,74.2,0
1786849318.589407,R,-0.708332,0.426268,-0.921588,-13.370000000000001,132.51000000000002,36.61000000000001,0
1786849318.5925186,L,-0.494832,0.664412,0.9569679999999999,-135.8,60.2,65.94000000000001,0
1786849318.6046202,R,-0.697108,0.402356,-0.962824,-20.020000000000003,165.9,36.540000000000006,0
1786849318.6067548,R,-0.658556,0.479216,-1.01382,-42.84,196.84000000000003,27.720000000000002,0
1786849318.6077547,L,-0.43724799999999997,0.723216,1.0553,-140.28,36.470000000000006,73.43,0
1786849318.6198757,R,-0.599508,0.542412,-1.065548,-51.03000000000001,207.13000000000002,18.200000000000003,0
1786849318.6218774,L,-0.45261999999999997,0.788364,1.112396,-168.42000000000002,-12.250000000000002,87.85000000000001,0
1786849318.634657,R,-0.59536,0.542656,-1.138992,-46.550000000000004,207.20000000000002,6.790000000000001,0
1786849318.6376846,L,-0.415288,0.889624,1.287588,-223.44000000000003,-49.7,104.02000000000001,0
1786849318.664756,R,-0.57584,0.599508,-1.22244,-44.870000000000005,207.9,-2.0300000000000002,0
1786849318.6659274,R,-0.569252,0.691496,-1.265628,-25.970000000000002,217.98000000000002,-2.0300000000000002,0
1786849318.6669292,L,-0.415776,0.9372039999999999,1.321992,-250.67000000000002,-83.02000000000001,125.51,0
1786849318.6689265,L,-0.39039999999999997,0.915244,1.266116,-236.46000000000004,-124.04,125.02000000000001,0
1786849318.6825428,L,-0.43602799999999997,0.8818159999999999,1.259772,-177.52,-162.4,100.73,0
1786849318.6948514,R,-0.5860879999999999,0.746152,-1.308816,-10.99,231.28000000000003,5.180000000000001,0
1786849318.6969037,R,-0.580476,0.766404,-1.401536,-15.610000000000001,239.54000000000002,10.430000000000001,0
1786849318.6979036,L,-0.47970399999999996,0.862784,1.258064,-109.76,-193.48000000000002,90.02000000000001,0
1786849318.7094884,R,-0.533384,0.7573759999999999,-1.4679039999999999,-27.720000000000002,242.62000000000003,-0.07,0
1786849318.7125566,L,-0.394792,0.891332,1.303692,-77.42,-216.02,104.44000000000001,0
1786849318.7246616,R,-0.507276,0.790072,-1.4701,-39.690000000000005,257.18,-7.700000000000001,0
1786849318.727832,L,-0.330132,0.8818159999999999,1.288808,-88.06,-214.55,115.57000000000001,0
1786849318.7394035,R,-0.473848,0.81862,-1.527196,-32.900000000000006,270.41,6.44,0
1786849318.742504,L,-0.30597599999999997,0.8757159999999999,1.311744,-107.59,-189.91000000000003,119.98000000000002,0
1786849318.754547,R,-0.4758,0.798856,-1.555988,-0.35000000000000003,266.21000000000004,31.710000000000004,0
1786849318.7576883,L,-0.28304,0.927688,1.374452,-113.47000000000001,-195.86,100.31000000000002,0
1786849318.7698836,R,-0.471896,0.67588,-1.590636,25.69,247.38000000000002,46.34,0
1786849318.772918,L,-0.302072,0.972096,1.447408,-82.60000000000001,-239.12000000000003,101.22000000000001,0
1786849318.7845564,R,-0.5133759999999999,0.6832,-1.508164,48.510000000000005,261.24,35.07,0
1786849318.7876956,L,-0.24570799999999998,0.9577,1.344684,-44.45,-274.05,112.00000000000001,0
1786849318.8000503,R,-0.417972,0.604144,-1.463268,59.220000000000006,285.74,10.64,0
1786849318.8025565,L,-0.28255199999999997,0.873032,1.231956,-31.85,-276.01000000000005,123.83000000000001,0
1786849318.8148458,R,-0.402356,0.528992,-1.368352,52.64000000000001,295.19000000000005,-14.070000000000002,0
1786849318.8169172,L,-0.218868,0.830576,1.105564,-37.1,-265.65000000000003,129.29000000000002,0
1786849318.8295474,R,-0.362584,0.486292,-1.213168,37.59,304.36,-31.290000000000003,0
1786849318.8315477,L,-0.131272,0.782264,0.996008,-53.620000000000005,-255.92000000000002,111.09000000000002,0
1786849318.8478234,L,-0.136396,0.72102,0.9359839999999999,-50.120000000000005,-243.95000000000002,102.62,0
1786849318.8595119,R,-0.32574,0.43066,-1.004792,36.96,311.57000000000005,-45.71,0
1786849318.8615112,R,-0.254248,0.410164,-0.888404,49.14000000000001,316.82000000000005,-42.63,0
1786849318.8626618,L,-0.061732,0.643428,0.82472,-40.040000000000006,-231.35000000000002,109.06000000000002,0
1786849318.8760295,R,-0.175192,0.346724,-0.776652,53.900000000000006,316.19000000000005,-42.63,0
1786849318.877028,L,-0.042943999999999996,0.533872,0.748104,-14.770000000000001,-224.56000000000003,109.69000000000001,0
1786849318.8916311,R,-0.13541999999999998,0.276696,-0.663192,44.03,311.57000000000005,-43.330000000000005,0
1786849318.8926685,L,-0.023667999999999998,0.486048,0.633424,16.450000000000003,-226.24,106.89000000000001,0
1786849318.9044352,R,-0.12688,0.154696,-0.521184,30.800000000000004,296.45000000000005,-58.940000000000005,0
1786849318.9195552,R,-0.033916,0.085156,-0.39283999999999997,8.96,282.52000000000004,-82.74000000000001,0
1786849318.934601,R,0.083936,0.034892,-0.2989,-15.47,277.34000000000003,-99.05000000000001,0
1786849318.9376059,L,0.05124,0.448228,0.554856,35.77,-227.85000000000002,99.75000000000001,0
1786849318.9386053,L,0.143716,0.423584,0.52704,41.650000000000006,-212.66000000000003,96.25000000000001,0
1786849318.9396052,L,0.194712,0.371124,0.422608,36.82,-178.50000000000003,91.28000000000002,0
1786849318.9517243,R,0.1769,-0.013663999999999999,-0.258152,-38.150000000000006,271.74,-105.56000000000002,0
1786849318.95276,L,0.22228399999999998,0.22204,0.381372,18.270000000000003,-137.83,80.22000000000001,0
1786849318.982851,L,0.280844,0.133712,0.272548,1.1900000000000002,-69.65,78.47000000000001,0
1786849318.9838512,L,0.277916,0.11712,0.181048,-22.400000000000002,-12.670000000000002,68.46000000000001,0
1786849319.0093954,R,0.228384,0.00122,-0.195688,-37.45,250.95000000000002,-112.42000000000002,0
1786849319.011903,R,0.276696,-0.051727999999999996,-0.03904,-26.46,228.13000000000002,-126.21000000000001,0
1786849319.0129638,L,0.315736,0.126392,0.123464,-33.6,16.73,54.60000000000001,0
1786849319.0149999,L,0.238388,0.20935199999999998,0.049044,-61.81000000000001,35.0,51.870000000000005,0
1786849319.0245116,R,0.29670399999999997,-0.06466,0.110044,-34.720000000000006,207.13000000000002,-141.33,0
1786849319.0395293,R,0.29158,-0.022935999999999998,0.169092,-64.19000000000001,196.14000000000001,-155.96,0
1786849319.041529,R,0.206424,0.07076,0.3782,-126.49000000000001,175.14000000000001,-187.95000000000002,0
1786849319.0425603,L,0.14884,0.336232,0.040504,-111.30000000000001,59.43000000000001,61.39000000000001,0
1786849319.04356,L,-0.00732,0.529968,0.017568,-161.49,97.09,89.25000000000001,0
1786849319.0559387,R,0.21716,0.193004,0.358436,-185.85000000000002,192.85000000000002,-213.01000000000002,0
1786849319.0569408,L,-0.14518,0.674904,0.093208,-176.05,152.81,127.96000000000001,0
1786849319.072558,L,-0.28426,0.725168,0.195688,-124.32000000000001,190.4,176.82000000000002,0
1786849319.0879107,L,-0.426268,0.6527,0.26596,-83.37,184.87,231.28000000000003,0
1786849319.099617,R,0.151036,0.342576,0.36941599999999997,-229.95000000000002,184.94000000000003,-226.94000000000003,0
1786849319.101617,R,0.041968,0.521428,0.401624,-209.09000000000003,140.0,-212.24,0
1786849319.1026614,L,-0.580232,0.5699839999999999,0.45627999999999996,-152.39000000000001,206.57000000000002,298.97,0
1786849319.1170616,L,-0.743712,0.38795999999999997,0.68442,-260.12,256.27000000000004,371.56000000000006,0
1786849319.1316936,R,-0.06539199999999999,0.693692,0.357948,-154.91000000000003,65.66000000000001,-164.71,0
1786849319.132891,L,-0.970876,0.050996,0.8374079999999999,-385.07000000000005,248.85000000000002,415.45000000000005,0
1786849319.1444645,R,-0.150548,0.797148,0.28255199999999997,-86.03,-19.46,-98.42000000000002,0
1786849319.1474795,L,-1.0796999999999999,-0.48531599999999997,0.932812,-471.87000000000006,233.03000000000003,406.84000000000003,0
1786849319.1597521,R,-0.273768,0.862784,0.098576,-14.350000000000001,-113.19000000000001,-17.64,0
1786849319.1617544,R,-0.408944,0.9137799999999999,-0.226676,12.250000000000002,-191.73000000000002,66.57000000000001,0
1786849319.162894,L,-1.065792,-0.885964,0.857416,-513.59,193.34000000000003,337.40000000000003,0
1786849319.1744144,R,-0.621956,1.033096,-0.642452,42.42,-225.75000000000003,154.42000000000002,0
1786849319.177418,L,-0.93818,-0.99308,0.762988,-513.6600000000001,166.32000000000002,239.96000000000004,0
1786849319.1896408,R,-0.7290719999999999,1.051152,-1.130696,101.08000000000001,-215.53000000000003,253.96000000000004,0
1786849319.191641,R,-0.571936,0.903532,-1.696288,191.66000000000003,-191.87,333.48,0
1786849319.1927025,L,-0.796416,-0.945256,0.8005639999999999,-480.06000000000006,173.81000000000003,169.75000000000003,0
1786849319.2047951,R,-0.429928,0.651236,-2.020076,322.56000000000006,-185.08,412.86,0
1786849319.2059712,R,-0.623908,0.108092,-1.8605,516.6,-237.02,533.33,0
1786849319.206971,L,-0.720776,-0.961604,0.936716,-393.47,152.67000000000002,124.18,0
1786849319.221557,R,-0.806176,-0.5367999999999999,-1.7167839999999999,664.72,-335.58000000000004,637.21,0
1786849319.2345595,R,-0.6893,-0.94428,-1.523048,680.1200000000001,-392.70000000000005,557.5500000000001,0
1786849319.237698,L,-0.621712,-1.02114,1.066524,-230.65000000000003,74.9,49.49,0
1786849319.238698,L,-0.50142,-0.955992,1.040416,-51.660000000000004,-24.080000000000002,-57.61000000000001,0
1786849319.251808,R,-0.71126,-1.2178039999999999,-1.521828,484.26000000000005,-358.82000000000005,248.08,0
1786849319.2528968,L,-0.390156,-0.707356,0.899872,54.46000000000001,-76.72000000000001,-140.63000000000002,0
1786849319.2645304,R,-0.72102,-1.134112,-1.1712,258.3,-192.99,-88.41000000000001,0
1786849319.2677028,L,-0.322324,-0.463356,0.691496,63.00000000000001,-70.35000000000001,-183.26000000000002,0
1786849319.2797961,R,-0.61976,-0.677832,-0.952332,119.28000000000002,40.18000000000001,-294.28000000000003,0
1786849319.2828572,L,-0.172752,-0.349164,0.553636,44.31,-51.940000000000005,-186.97000000000003,0
1786849319.29702,L,-0.132736,-0.21984399999999998,0.517524,63.980000000000004,-41.720000000000006,-177.24,0
1786849319.3100677,R,-0.58926,-0.275232,-0.9940559999999999,53.690000000000005,177.10000000000002,-344.12,0
1786849319.3115697,R,-0.532164,0.07442,-1.237568,70.63000000000001,117.67000000000002,-310.66,0
1786849319.312573,L,0.035623999999999996,-0.133956,0.522404,109.27000000000001,-40.6,-154.84,0
1786849319.3247073,R,-0.481168,0.278404,-0.935008,143.43,16.1,-263.48,0
1786849319.3277109,L,0.081252,-0.169824,0.512156,181.86,-40.67,-135.87,0
1786849319.3394701,R,-0.36234,0.315004,-0.813496,156.38000000000002,-39.410000000000004,-248.50000000000003,0
1786849319.342502,L,-0.013663999999999999,-0.231068,0.4575,236.39000000000001,-40.18000000000001,-122.50000000000001,0
1786849319.3547802,R,-0.333548,0.202032,-0.60024,137.41000000000003,-65.17,-244.86,0
1786849319.3579197,L,0.033672,-0.310856,0.335256,257.81,-34.650000000000006,-123.62000000000002,0
1786849319.3695035,R,-0.295972,0.174948,-0.409188,83.37,-68.18,-248.01000000000002,0
1786849319.3720107,L,0.034892,-0.332084,0.316712,270.41,-8.190000000000001,-128.17000000000002,0
1786849319.3847003,R,-0.286456,0.153476,-0.305732,25.76,-59.080000000000005,-259.49,0
1786849319.3994038,R,-0.285968,0.185928,-0.326228,-15.820000000000002,-46.620000000000005,-270.34000000000003,0
1786849319.4029136,L,-0.0053679999999999995,-0.273524,0.33794,281.19000000000005,23.1,-129.29000000000002,0
1786849319.4029136,L,-0.060756,-0.172752,0.470432,303.73,46.480000000000004,-132.79000000000002,0
1786849319.4146512,R,-0.296948,0.250588,-0.491172,-42.00000000000001,-36.120000000000005,-285.25,0
1786849319.4176552,L,-0.088328,-0.075884,0.49898,327.81000000000006,53.410000000000004,-131.60000000000002,0
1786849319.4302495,R,-0.235704,0.309392,-0.735416,-35.910000000000004,-30.380000000000003,-280.07000000000005,0
1786849319.4444213,R,-0.129076,0.3416,-1.0365119999999999,-13.72,-49.56,-241.43000000000004,0
1786849319.4475486,L,-0.043188,-0.09759999999999999,0.50264,319.69000000000005,62.510000000000005,-123.69000000000001,0
1786849319.448551,L,-0.068564,-0.091012,0.551196,268.31,94.08000000000001,-93.52000000000001,0
1786849319.4600675,R,-0.026352,0.365512,-1.085068,-11.48,-69.16000000000001,-202.72000000000003,0
1786849319.4625728,L,-0.116876,-0.112728,0.683932,191.52,158.62,-73.64,0
1786849319.4748082,R,-0.00366,0.359168,-1.051396,-63.14000000000001,-59.71000000000001,-200.20000000000002,0
1786849319.4778435,L,-0.198128,-0.116632,0.88328,124.25000000000001,193.62,-78.54,0
1786849319.4893847,R,-0.019764,0.34648,-1.005524,-104.72000000000001,-49.63,-213.57000000000002,0
1786849319.4928925,L,-0.22082,-0.060024,1.050908,61.60000000000001,203.70000000000002,-88.41000000000001,0
1786849319.504562,R,-0.024888,0.316224,-1.1041,-102.55000000000001,-60.06,-214.20000000000002,0
1786849319.5075963,L,-0.13663999999999998,-0.02196,1.16632,1.9600000000000002,205.73000000000002,-79.73,0
1786849319.5198793,R,0.057096,0.375516,-1.208776,-84.91000000000001,-59.080000000000005,-206.64000000000001,0
1786849319.5229192,L,-0.09028,-0.010248,1.244156,5.040000000000001,189.63000000000002,-64.19000000000001,0
1786849319.5366316,R,0.129808,0.471408,-1.357372,-59.64000000000001,-42.42,-204.19000000000003,0
1786849319.5376332,L,-0.066612,-0.022692,1.218048,9.520000000000001,171.85000000000002,-46.410000000000004,0
1786849319.5496485,R,0.25376,0.6390359999999999,-1.402756,-22.96,-16.87,-192.92000000000002,0
1786849319.5529144,L,-0.162504,0.000488,1.165588,14.700000000000001,170.59,-23.450000000000003,0
1786849319.5647264,R,0.275476,0.634888,-1.29198,25.76,-26.880000000000003,-167.16000000000003,0
1786849319.5670733,L,-0.173972,-0.052948,1.181448,7.98,184.8,-6.0200000000000005,0
1786849319.5816176,R,0.241316,0.57584,-1.148508,80.15,-65.59,-119.56000000000002,0
1786849319.582651,L,-0.158356,-0.099796,1.316136,1.33,191.8,-16.1,0
1786849319.5964677,R,0.23058,0.531188,-1.089704,114.52000000000001,-104.58000000000001,-74.83000000000001,0
1786849319.5974686,L,-0.15372,-0.044652,1.42618,16.73,167.58,-39.760000000000005,0
1786849319.6095634,R,0.201544,0.512888,-1.142896,122.15,-126.91000000000001,-55.510000000000005,0
1786849319.6126072,L,-0.134688,0.05978,1.463268,25.480000000000004,129.08,-51.660000000000004,0
1786849319.6272826,L,-0.16226,0.14152,1.356396,31.500000000000004,102.9,-34.86000000000001,0
1786849319.6417665,R,0.272548,0.5002,-1.239276,92.68,-137.41000000000003,-62.370000000000005,0
1786849319.6427708,L,-0.201788,0.142008,1.2805119999999999,16.03,108.15,-2.1,0
1786849319.6544342,R,0.30719599999999997,0.565836,-1.237812,27.37,-116.97000000000001,-96.74000000000001,0
1786849319.6564384,R,0.2989,0.5970679999999999,-1.176568,1.8200000000000003,-73.71000000000001,-105.28000000000002,0
1786849319.6574388,L,-0.23741199999999998,0.049288,1.245376,-30.380000000000003,129.5,27.230000000000004,0
1786849319.6707637,R,0.289384,0.60024,-1.19194,23.590000000000003,-65.03,-76.37,0
1786849319.6728246,L,-0.26156799999999997,-0.09272,1.24074,-63.35000000000001,140.63000000000002,41.230000000000004,0
1786849319.6844745,R,0.262544,0.5453399999999999,-1.217072,80.64000000000001,-107.38000000000001,-29.680000000000003,0
1786849319.6874778,L,-0.217648,-0.14396,1.28954,-61.25000000000001,132.02,25.62,0
1786849319.6996095,R,0.174704,0.383324,-1.193404,143.15,-151.48000000000002,16.380000000000003,0
1786849319.7026455,L,-0.1403,-0.14396,1.286368,-43.96,105.84,-22.610000000000003,0
1786849319.714703,R,0.134444,0.223748,-1.129964,168.84,-161.77,39.620000000000005,0
1786849319.7179265,L,-0.17446,-0.067344,1.21146,-2.0300000000000002,88.55000000000001,-91.28000000000002,0
1786849319.7326796,L,-0.14835199999999998,0.208376,1.286856,48.440000000000005,62.510000000000005,-100.80000000000001,0
1786849319.7444658,R,0.13541999999999998,0.14884,-1.072868,141.89000000000001,-139.37,14.560000000000002,0
1786849319.746469,R,0.10004,0.141764,-1.089948,71.12,-91.42,-27.650000000000002,0
1786849319.74747,L,-0.132248,0.355508,1.165344,28.490000000000002,44.800000000000004,-75.18,0
1786849319.7595212,R,0.033916,0.209596,-1.206824,-5.8100000000000005,-54.18000000000001,-58.800000000000004,0
1786849319.7626204,L,-0.172508,0.367708,1.108736,-15.96,61.81000000000001,-19.46,0
1786849319.7777946,L,-0.187392,0.176656,1.098976,-64.05000000000001,70.14,31.640000000000004,0
1786849319.7900453,R,0.016347999999999998,0.25986,-1.29564,-51.940000000000005,-33.39,-74.06,0
1786849319.79155,R,0.000488,0.289628,-1.370304,-61.95,-17.360000000000003,-63.00000000000001,0
1786849319.7925537,L,-0.23619199999999999,-0.030012,1.097268,-75.53,64.33000000000001,50.61000000000001,0
1786849319.804609,R,-0.049288,0.2501,-1.2993,-42.35,-15.260000000000002,-43.75000000000001,0
1786849319.8071268,L,-0.29524,-0.159576,1.106296,-48.230000000000004,51.52,32.690000000000005,0
1786849319.8199167,R,-0.090524,0.192516,-1.182668,-14.420000000000002,-23.660000000000004,-34.160000000000004,0
1786849319.8224242,L,-0.326472,-0.188856,1.142164,-17.990000000000002,32.550000000000004,2.9400000000000004,0
1786849319.8344378,R,-0.11223999999999999,0.17177599999999998,-1.082628,2.5900000000000003,-28.210000000000004,-40.25000000000001,0
1786849319.837524,L,-0.345504,-0.153964,1.160952,-17.290000000000003,18.130000000000003,-16.66,0
1786849319.8496768,R,-0.128588,0.170068,-0.988688,0.9100000000000001,-27.930000000000003,-55.93000000000001,0
1786849319.8527045,L,-0.331352,-0.158356,1.16388,-64.4,18.62,-17.64,0
1786849319.8670309,L,-0.323544,-0.18788,1.153388,-114.94000000000001,23.520000000000003,-3.8500000000000005,0
1786849319.8806672,R,-0.180316,0.202764,-0.917928,4.9,-12.950000000000001,-73.15,0
1786849319.8816671,R,-0.128832,0.227408,-0.88694,-8.190000000000001,-12.950000000000001,-79.80000000000001,0
1786849319.8826978,L,-0.345748,-0.271572,1.157292,-126.42000000000002,15.96,1.2600000000000002,0
1786849319.897555,L,-0.37576,-0.326472,1.136552,-92.89000000000001,1.54,-11.340000000000002,0
1786849319.9095654,R,-0.124928,0.253516,-0.921588,-6.930000000000001,-21.630000000000003,-59.71000000000001,0
1786849319.9116426,R,-0.12688,0.263276,-0.895968,12.32,-41.160000000000004,-28.210000000000004,0
1786849319.9126503,L,-0.445056,-0.287188,1.094096,-46.06,-7.700000000000001,-31.220000000000002,0
1786849319.9247541,R,-0.13298,0.190076,-0.8757159999999999,42.14,-59.290000000000006,-1.7500000000000002,0
1786849319.927874,L,-0.488,-0.197152,1.039196,-16.73,1.9600000000000002,-39.06,0
1786849319.9394207,R,-0.165188,0.10760399999999999,-0.84302,65.24000000000001,-74.76,12.32,0
1786849319.9424508,L,-0.524112,-0.09881999999999999,1.020652,-5.8100000000000005,16.94,-37.870000000000005,0
1786849319.9546478,R,-0.193248,0.0793,-0.8066639999999999,84.7,-91.7,13.160000000000002,0
1786849319.9576657,L,-0.544852,-0.04758,1.0291919999999999,-0.56,30.94,-38.080000000000005,0
1786849319.9694383,R,-0.20569199999999999,0.054168,-0.814228,100.03000000000002,-117.88000000000001,12.46,0
1786849319.972471,L,-0.462624,-0.029036,1.029924,36.75,41.720000000000006,-40.18000000000001,0
1786849319.984549,R,-0.22204,0.034892,-0.917928,100.87,-140.84,19.110000000000003,0
1786849319.987566,L,-0.464576,0.03538,1.051884,67.97000000000001,42.35,-42.77,0
1786849319.999744,R,-0.261324,0.050508,-1.089704,86.10000000000001,-142.31,32.830000000000005,0
1786849320.0027757,L,-0.43602799999999997,0.0854,1.132892,84.00000000000001,36.260000000000005,-38.57,0
1786849320.015296,R,-0.278404,0.006588,-1.171688,62.160000000000004,-115.92000000000002,38.36000000000001,0
1786849320.0172997,L,-0.40821199999999996,0.098576,1.226832,61.60000000000001,32.760000000000005,-20.37,0
1786849320.0299547,R,-0.30134,-0.081008,-1.12728,27.930000000000003,-76.30000000000001,26.740000000000002,0
1786849320.0324605,L,-0.3538,0.075884,1.266604,0.21000000000000002,15.330000000000002,-5.040000000000001,0
1786849320.0445654,R,-0.30744,-0.13419999999999999,-1.025776,-10.71,-49.84,7.5600000000000005,0
1786849320.047707,L,-0.327692,0.056119999999999996,1.173152,-53.760000000000005,-4.69,0.56,0
1786849320.059835,R,-0.294508,-0.13541999999999998,-0.9447679999999999,-40.11000000000001,-28.140000000000004,-17.01,0
1786849320.0628836,L,-0.31890799999999997,0.050263999999999996,1.046028,-65.87,-12.88,-8.680000000000001,0
1786849320.0748992,R,-0.307928,-0.07442,-0.842288,-60.690000000000005,-5.6000000000000005,-41.720000000000006,0
1786849320.0770793,L,-0.29036,0.082472,0.94306,-48.02,-21.770000000000003,-27.650000000000002,0
1786849320.0898254,R,-0.336964,0.013908,-0.770308,-70.98,7.3500000000000005,-60.2,0
1786849320.0928583,L,-0.253516,0.168604,0.883768,-9.520000000000001,-31.430000000000003,-38.36000000000001,0
1786849320.1044464,R,-0.354776,0.10736,-0.7807999999999999,-80.85000000000001,6.0200000000000005,-61.67000000000001,0
1786849320.1074514,L,-0.220332,0.21276799999999998,0.825696,22.19,-36.260000000000005,-35.14,0
1786849320.1226006,L,-0.21716,0.219356,0.7783599999999999,30.520000000000003,-25.55,-16.380000000000003,0
1786849320.134397,R,-0.353312,0.18178,-0.814716,-63.910000000000004,-0.21000000000000002,-50.68000000000001,0
1786849320.1364005,R,-0.366732,0.22204,-0.823744,-30.660000000000004,-11.06,-35.28,0
1786849320.1374013,L,-0.252296,0.179096,0.792512,26.180000000000003,-7.910000000000001,5.95,0
1786849320.149417,R,-0.390888,0.236924,-0.842776,-3.99,-28.28,-17.57,0
1786849320.1524673,L,-0.282064,0.10345599999999999,0.8337479999999999,21.770000000000003,3.5700000000000003,24.220000000000002,0
1786849320.1644974,R,-0.414068,0.239364,-0.897188,8.96,-48.09,-1.61,0
1786849320.1675131,L,-0.332328,0.04514,0.894992,21.630000000000003,7.910000000000001,36.89,0
1786849320.1797955,R,-0.446276,0.22569999999999998,-0.98088,15.890000000000002,-56.49,12.81,0
1786849320.1828713,L,-0.384544,-0.01464,0.953796,31.710000000000004,2.5900000000000003,41.02,0
1786849320.1948917,R,-0.45945199999999997,0.188368,-1.068476,15.260000000000002,-55.370000000000005,24.85,0
1786849320.1964478,L,-0.43968799999999997,-0.082716,1.0065,47.25000000000001,-3.7800000000000002,40.32000000000001,0
1786849320.2095766,R,-0.48434,0.135908,-1.102392,14.21,-46.970000000000006,30.730000000000004,0
1786849320.2137346,L,-0.488244,-0.126148,1.0426119999999999,54.88,-8.05,37.17,0
1786849320.2248473,R,-0.501908,0.082228,-1.094096,17.360000000000003,-38.78,30.1,0
1786849320.2272408,L,-0.518988,-0.159088,1.071892,39.06,0.07,40.25000000000001,0
1786849320.2399726,R,-0.486048,0.06222,-1.083604,20.790000000000003,-29.19,25.55,0
1786849320.242479,L,-0.532164,-0.204228,1.097024,12.950000000000001,3.9200000000000004,40.67,0
1786849320.2545729,R,-0.469456,0.057828,-1.049932,21.770000000000003,-17.71,17.080000000000002,0
1786849320.2577817,L,-0.535824,-0.227896,1.061156,-7.490000000000001,-0.21000000000000002,33.95,0
1786849320.2698767,R,-0.42309599999999997,0.106872,-1.022116,22.330000000000002,-8.680000000000001,7.490000000000001,0
1786849320.2844262,R,-0.388936,0.234484,-1.092632,55.93000000000001,-31.92,1.7500000000000002,0
1786849320.2874296,L,-0.5124,-0.292312,0.945744,-17.64,-2.87,21.21,0
1786849320.288431,L,-0.647332,-0.31232,0.627568,-48.370000000000005,25.55,4.48,0
1786849320.2994444,R,-0.353556,0.17568,-0.995032,32.34,10.64,25.900000000000002,0
1786849320.3146548,R,-0.403576,0.110288,-0.9101199999999999,7.210000000000001,26.880000000000003,26.740000000000002,0
1786849320.3178444,L,-0.471652,-0.28548,0.660264,-54.25000000000001,33.11000000000001,2.24,0
1786849320.3188467,L,-0.433832,-0.24204799999999999,0.773236,-28.980000000000004,10.71,-10.57,0
1786849320.330139,R,-0.415776,0.047092,-0.856928,5.11,17.990000000000002,19.810000000000002,0
1786849320.3326461,L,-0.4148,-0.183976,0.7302919999999999,20.650000000000002,-10.500000000000002,-19.39,0
1786849320.3447533,R,-0.42675599999999997,0.038064,-0.84058,11.9,19.880000000000003,9.870000000000001,0
1786849320.3479161,L,-0.409188,-0.152012,0.707112,58.730000000000004,-11.690000000000001,-20.020000000000003,0
1786849320.3595128,R,-0.427,0.067344,-0.82716,17.220000000000002,15.330000000000002,0.49000000000000005,0
1786849320.362016,L,-0.399428,-0.138104,0.722728,72.94000000000001,-10.850000000000001,-19.53,0
1786849320.3745337,R,-0.42797599999999997,0.09467199999999999,-0.785436,14.420000000000002,15.540000000000001,-3.5000000000000004,0
1786849320.378537,L,-0.37576,-0.117364,0.744688,65.87,-10.920000000000002,-12.530000000000001,0
1786849320.3895507,R,-0.426512,0.118828,-0.7503,1.61,21.07,-4.62,0
1786849320.3920543,L,-0.370148,-0.122,0.753472,34.230000000000004,3.7100000000000004,-0.77,0
1786849320.4045756,R,-0.431148,0.131028,-0.721264,-12.46,23.17,-2.87,0
1786849320.407579,L,-0.388204,-0.153476,0.756644,3.22,12.32,5.880000000000001,0
1786849320.4195936,R,-0.442372,0.137128,-0.6810039999999999,-18.060000000000002,22.89,1.54,0
1786849320.4220986,L,-0.42212,-0.1769,0.744688,-11.200000000000001,18.200000000000003,4.41,0
1786849320.434621,R,-0.446764,0.151524,-0.6673399999999999,-13.020000000000001,22.89,7.7700000000000005,0
1786849320.4376285,L,-0.43676,-0.142984,0.7351719999999999,-12.040000000000001,21.42,2.45,0
1786849320.4496427,R,-0.45945199999999997,0.15298799999999999,-0.634644,-4.340000000000001,22.330000000000002,14.910000000000002,0
1786849320.4521492,L,-0.45017999999999997,-0.110776,0.70394,-8.120000000000001,23.03,5.6000000000000005,0
1786849320.4646761,R,-0.468968,0.147376,-0.596824,-9.8,15.120000000000001,18.270000000000003,0
1786849320.46768,L,-0.4819,-0.08418,0.673928,-3.6400000000000006,29.540000000000003,15.47,0
1786849320.479699,R,-0.45139999999999997,0.148108,-0.5673,-14.980000000000002,3.08,18.62,0
1786849320.4822023,L,-0.508008,-0.086864,0.642208,-0.42000000000000004,42.14,21.98,0
1786849320.4967365,R,-0.437492,0.15616,-0.543388,-22.12,-3.7100000000000004,21.840000000000003,0
1786849320.4977362,L,-0.5158159999999999,-0.099064,0.61976,3.43,53.550000000000004,20.580000000000002,0
1786849320.509754,R,-0.44212799999999997,0.165676,-0.570228,-27.930000000000003,-10.57,23.380000000000003,0
1786849320.5122566,L,-0.509716,-0.111508,0.6161,8.190000000000001,61.46000000000001,14.560000000000002,0
1786849320.524779,R,-0.43554,0.1525,-0.617076,-25.55,-19.740000000000002,32.550000000000004,0
1786849320.5277836,L,-0.510936,-0.122976,0.649772,7.210000000000001,68.95,9.66,0
1786849320.5398016,R,-0.439444,0.13054,-0.668072,1.7500000000000002,-32.480000000000004,49.21000000000001,0
1786849320.542305,L,-0.53314,-0.113216,0.687348,-8.4,85.68,6.090000000000001,0
1786849320.5548344,R,-0.436516,0.097356,-0.709064,4.970000000000001,-38.92,58.17000000000001,0
1786849320.5578387,L,-0.574376,-0.078812,0.715652,-22.610000000000003,95.76,-1.12,0
1786849320.569851,R,-0.501664,0.08295999999999999,-0.73688,-2.5200000000000005,-38.57,57.190000000000005,0
1786849320.5723555,L,-0.61854,-0.03294,0.738588,-30.450000000000003,98.35000000000001,-6.86,0
1786849320.5848818,R,-0.49288,0.081252,-0.757864,-26.250000000000004,-34.440000000000005,40.6,0
1786849320.5878851,L,-0.6624599999999999,0.005124,0.7381,-11.340000000000002,88.83000000000001,-9.8,0
1786849320.599902,R,-0.502884,0.103212,-0.767868,-46.690000000000005,-31.640000000000004,32.760000000000005,0
1786849320.6024053,L,-0.712724,0.053436,0.724192,25.270000000000003,81.97000000000001,-12.530000000000001,0
1786849320.6175194,L,-0.7881199999999999,0.08295999999999999,0.82594,65.87,87.78000000000002,-11.200000000000001,0
1786849320.629543,R,-0.576816,0.142008,-0.85156,-53.690000000000005,-47.6,39.480000000000004,0
1786849320.630543,R,-0.634644,0.129076,-1.026996,-34.93000000000001,-76.51,66.85000000000001,0
1786849320.632047,L,-0.825452,0.116876,1.079456,92.61000000000001,98.14000000000001,-1.33,0
1786849320.6445746,R,-0.660508,0.066124,-1.307596,-18.970000000000002,-91.7,98.49000000000001,0
1786849320.647578,L,-0.828624,0.08052,1.342,91.35000000000001,92.75000000000001,9.73,0
1786849320.6621037,L,-0.828624,0.010248,1.4703439999999999,86.17,58.660000000000004,5.8100000000000005,0
1786849320.674627,R,-0.655872,-0.03782,-1.506456,-19.32,-76.86000000000001,103.67000000000002,0
1786849320.676631,R,-0.67222,-0.100772,-1.5689199999999999,-17.85,-50.82000000000001,93.59,0
1786849320.677631,L,-0.842532,0.018788,1.435208,53.06,20.860000000000003,0.14,0
1786849320.6896458,R,-0.6414759999999999,-0.133712,-1.525976,17.92,-32.06,83.23,0
